acc_x_mean,acc_x_std,acc_x_cv,acc_y_mean,acc_y_std,acc_y_cv,acc_z_mean,acc_z_std,acc_z_cv,state
-4.8426218365,3.76003668127,-0.776446480485,-5.12061584737,3.66430356848,-0.715598216639,-3.28912589337,3.68817314391,-1.12132319147,Rest
-4.73999524425,3.89743015629,-0.822243473982,-5.01291431375,3.78058890185,-0.754169863123,-3.193829772,3.82719824746,-1.19831002924,Rest
-4.70559841937,3.79819946074,-0.807166086485,-4.8516439545,3.86599927603,-0.79684315508,-2.95981858637,3.90424431902,-1.31908230355,Rest
-4.2787394615,4.27749796731,-0.999709845809,-4.53643370688,4.26052204979,-0.939178730494,-2.77373740262,3.99598574096,-1.44065034317,Rest
-4.38644099512,4.06636372804,-0.927030303737,-4.7614227745,4.01340657067,-0.84290069602,-2.85268093512,4.02365850064,-1.41048318832,Rest
-4.78679748137,3.47520478975,-0.725997872957,-5.06479149225,3.47264368295,-0.685643957558,-3.11150294525,3.41089442308,-1.09622085632,Rest
-4.217840165,3.97522597131,-0.942479045152,-4.54207253062,3.99238497731,-0.878978693182,-2.56115374725,3.90427840169,-1.52442172044,Rest
-4.31144463925,3.85724413538,-0.894652363215,-4.6170688865,3.90447140905,-0.845660202399,-2.56510092387,3.88441534244,-1.51433236263,Rest
-4.21502075312,3.90816354567,-0.927199122986,-4.569702767,3.93105792185,-0.860243679356,-2.58765621887,3.81902504864,-1.47586260523,Rest
-4.22178734163,3.88137860149,-0.919368572457,-4.53699758925,3.92108591268,-0.864246858312,-2.54141786412,3.83098676918,-1.50742104368,Rest
-4.87476313187,3.78043561887,-0.77551165392,-5.07776078687,3.70612114577,-0.729873127413,-3.26769836312,3.71667252731,-1.13739767699,Rest
-4.86574101387,3.67244599592,-0.754755747469,-5.1358406715,3.62267529725,-0.705371433609,-3.28517871675,3.57209421768,-1.08733634474,Rest
-4.7704448925,3.65171549552,-0.765487407948,-5.03321407925,3.63945445931,-0.723087554395,-3.11319459237,3.57535750664,-1.14845294778,Rest
-4.63342147537,3.76516008802,-0.812609020791,-4.97062313562,3.75728392231,-0.755897966872,-2.99026823462,3.69348684798,-1.23516907454,Rest
-4.46764005713,3.69678941267,-0.827459098181,-4.75127289175,3.74346063044,-0.78788583938,-2.814900816,3.6325692989,-1.29047861234,Rest
-4.45185135063,3.94128106103,-0.885312817213,-4.75522006838,3.9208404842,-0.82453397063,-2.83012564012,3.88427454729,-1.37247424362,Rest
-4.46933170425,3.95667884974,-0.885295411388,-4.74732571512,3.88086115898,-0.817483651188,-2.87636399487,3.88583283253,-1.35095309198,Rest
-4.46594841,3.89652758265,-0.872497222298,-4.817811012,3.872685037,-0.803826681319,-2.900610937,3.84517771211,-1.32564407831,Rest
-4.52966711837,3.9580651183,-0.873809270056,-4.83021642425,3.954453827,-0.818690816244,-2.90794140787,3.90282993121,-1.34212811876,Rest
-4.6802237125,3.7631365305,-0.804050567166,-4.95370666437,3.74500665614,-0.756000891833,-3.026920589,3.65747235886,-1.20831460599,Rest
-4.65654065275,3.73089039538,-0.801215037858,-4.9508872525,3.74154885974,-0.755732996717,-3.03312329512,3.63884437747,-1.19970209695,Rest
-4.62101606312,3.76778148029,-0.815357797684,-4.89731842687,3.73081279765,-0.76180727338,-2.9705323515,3.64586023809,-1.22734237728,Rest
-4.384749348,3.91522760368,-0.89291936504,-4.69883183087,3.93305232132,-0.837027683238,-2.76584304937,3.82182048597,-1.38179224842,Rest
-4.47609829275,3.9078243056,-0.8730425585,-4.78679748137,3.90766332001,-0.816341893555,-2.79347328575,3.83246106526,-1.37193403095,Rest
-4.7704448925,3.61369333461,-0.757517048419,-5.05238608,3.58154363825,-0.708881621781,-3.13800541688,3.55229852092,-1.13202434317,Rest
-4.80540559975,3.69108271561,-0.7681105453,-5.074941375,3.65819837014,-0.720835591947,-3.16789118275,3.66066583572,-1.15555289767,Rest
-4.58379982637,3.93427481464,-0.858299874267,-4.90746830963,3.88658850679,-0.791974244472,-3.0246650595,3.86790691472,-1.2787885067,Rest
-4.38192993612,4.05714520871,-0.925880894457,-4.69488465425,4.03508664335,-0.859464489653,-2.76415140225,4.01103909583,-1.45109240129,Rest
-4.47384276325,3.95811223334,-0.88472314357,-4.81160830587,3.9233131236,-0.815384976124,-2.88538611287,3.89762541987,-1.3508158934,Rest
-4.56124453138,3.92576347121,-0.860678142601,-4.9057766625,3.84284576755,-0.783330761248,-3.00041811737,3.82488356397,-1.27478351828,Rest
-4.208818047,4.21093464229,-1.00050289541,-4.53305041262,4.15866516333,-0.917409864172,-2.60175327825,4.09983530864,-1.57579711455,Rest
-4.24772593087,4.11477572547,-0.968700851333,-4.623835475,4.09606889661,-0.885859568047,-2.68013292837,4.04595372666,-1.50960934953,Rest
-4.40786852537,4.06130270828,-0.921375645597,-4.85502724875,3.95987336308,-0.815623303474,-3.0607535315,3.64626139194,-1.19129533117,Rest
-4.47891770462,3.94351738638,-0.880462121977,-4.83867465987,3.96679924911,-0.819811111089,-2.87692787725,3.89366704536,-1.35341142062,Rest
-4.50316464675,3.87463451878,-0.860424795165,-4.85671889587,3.89111326008,-0.801181485588,-2.84309493475,3.84694739812,-1.35308439796,Rest
-4.7614227745,3.83418056128,-0.805259424098,-5.03772513825,3.73801381898,-0.742004320681,-3.14026094637,3.69290002844,-1.17598508261,Rest
-4.74619795038,3.8435205077,-0.809810409907,-5.03603349112,3.75597470161,-0.745820040362,-3.14477200537,3.77998040118,-1.20198869575,Rest
-4.87701866137,3.7373977059,-0.766328358654,-5.12061584737,3.7319931655,-0.728817251036,-3.3178838945,3.66947962175,-1.10596987069,Rest
-4.50090911725,3.8761487738,-0.861192410872,-4.804277835,3.87710037758,-0.807010025384,-2.84929764087,3.8213136173,-1.34114230907,Rest
-4.46651229237,3.93097602501,-0.880099676815,-4.79130854037,3.88613034158,-0.811079125636,-2.84027552287,3.84279740476,-1.35296641956,Rest
-4.43155158512,3.91841691981,-0.88420880239,-4.77833924575,3.88860595923,-0.813798635727,-2.83858387575,3.81921674474,-1.34546552503,Rest
-4.4636928805,3.89226825644,-0.87198388434,-4.78059477525,3.86534832565,-0.808549669523,-2.85888364125,3.80785805694,-1.33193880366,Rest
-4.43155158512,3.92324374881,-0.885297998557,-4.72646206725,3.91189373243,-0.827657913417,-2.810389757,3.82483472467,-1.36096237724,Rest
-4.72025936112,3.53375321833,-0.748635392249,-5.02419196125,3.53320884887,-0.703239222569,-3.06808400237,3.4701249429,-1.13103974344,Rest
-4.42252946712,3.83295828874,-0.866689146388,-4.77100877487,3.75366798169,-0.786766103106,-2.94064658562,3.70391558109,-1.2595582207,Rest
-4.54432806012,3.69660568931,-0.813454847538,-4.8922434855,3.7285915228,-0.762143489761,-2.936699409,3.5945993708,-1.22402700112,Rest
-4.64131582862,3.65626649833,-0.787765072091,-4.91592654525,3.68740427176,-0.750093443793,-2.95079646837,3.6121052778,-1.22411196994,Rest
-4.50823958812,3.7545833873,-0.832826941405,-4.78228642237,3.76321253229,-0.786906554715,-2.83632834625,3.66933387222,-1.29369149981,Rest
-4.61143006275,3.62820324224,-0.786784835262,-4.89788230925,3.57044531371,-0.728977359657,-2.96094635113,3.56910368199,-1.2053928909,Rest
-4.7524006565,3.75137073494,-0.789363314689,-5.02475584362,3.68988525387,-0.734341203573,-3.12052506325,3.68477367606,-1.18081848451,Rest
-4.78454195187,3.77791154852,-0.789607779913,-5.04843890337,3.71313829414,-0.735502274111,-3.20623518425,3.7317241389,-1.16389594788,Rest
-4.67740430062,3.78003019854,-0.808146988285,-4.97457031225,3.78029351642,-0.759923627396,-3.09289482687,3.73258849096,-1.20682684019,Rest
-4.68191535962,3.85173480443,-0.82268356187,-5.00671160762,3.79205254129,-0.757393842201,-3.103608592,3.76104995841,-1.21183127541,Rest
-4.25223698987,4.0301174339,-0.947764069476,-4.60973841563,4.00242641273,-0.86825456281,-2.59949774875,3.95537742769,-1.52159294217,Rest
-4.6576684175,3.71413872608,-0.797424460728,-4.94750395825,3.6866750423,-0.745158583684,-3.00492917637,3.64320553649,-1.21240978494,Rest
-4.52120888275,3.86291924889,-0.854399641572,-4.79469183463,3.8194509714,-0.796599886529,-2.87692787725,3.73989968056,-1.29996296054,Rest
-4.24321487187,4.04147267336,-0.952455342326,-4.51669782375,4.06940826537,-0.900969784601,-2.74103222488,3.93793743375,-1.43666221725,Rest
-4.55616959,3.77543905951,-0.828643224299,-4.88886019125,3.7442154863,-0.765866754178,-2.92147458487,3.68214754794,-1.26037295241,Rest
-4.53192264787,3.82318367244,-0.843611855165,-4.8516439545,3.77782944586,-0.77866996863,-2.88594999525,3.72794046086,-1.29175504323,Rest
-4.5945135915,3.78571729241,-0.823964760799,-4.89111572075,3.72009763312,-0.760582624806,-2.90343034887,3.71636384816,-1.27999070121,Rest
-4.41745452575,3.96126963084,-0.896731275387,-4.732100891,3.95303086043,-0.835364873125,-2.77035410837,3.87701471656,-1.39946539861,Rest
-4.18344334013,4.15732387324,-0.993756466919,-4.52290052987,4.14838720789,-0.917196206392,-2.57525080662,4.13740564793,-1.60660299078,Rest
-4.019353569,4.15663000257,-1.03415385863,-4.37967440662,4.13220418371,-0.943495748784,-2.413416565,4.06974970113,-1.68630221577,Rest
-4.27817557912,4.05408256024,-0.947619489959,-4.61368559225,4.05500656118,-0.878908300122,-2.6682913985,3.95160850794,-1.48095088496,Rest
-4.37234393575,3.97126804207,-0.908269820587,-4.68811806575,3.96134347675,-0.844975194991,-2.73764893062,3.91309565577,-1.42936357252,Rest
-4.29340040325,4.0459841008,-0.942372879488,-4.60691900375,4.00919258307,-0.870254627833,-2.65870539812,3.97655092235,-1.49567188796,Rest
-4.33794711087,4.01865921698,-0.926396545248,-4.637368652,3.97782883088,-0.857777142468,-2.69028281112,3.9421177346,-1.46531722178,Rest
-4.36388570012,4.01885733295,-0.920935516903,-4.65597677038,3.95163968773,-0.84872409864,-2.724679636,3.92956094213,-1.44221026583,Rest
-4.21445687075,4.06735686007,-0.965096330277,-4.54094476587,4.06852567358,-0.895964580796,-2.6276918675,4.04130214144,-1.53796652927,Rest
-4.30524193313,4.02114540264,-0.934011483003,-4.610302298,3.99100887695,-0.8656718408,-2.68464398737,3.9730513108,-1.4799173855,Rest
-4.21896792975,4.06067339584,-0.962480270875,-4.54996688387,4.06248973909,-0.892861386197,-2.60795598438,3.9632249191,-1.51966710437,Rest
-4.41237958437,4.04516399756,-0.916776066113,-4.700523478,4.00842813418,-0.852762070638,-2.77712069687,3.96357309522,-1.42722392285,Rest
-4.54771135437,3.96236798677,-0.871288364193,-4.83641913037,3.86871930774,-0.799913986661,-2.97899058712,3.82400194973,-1.28365694281,Rest
-4.429859938,4.03477222057,-0.910812593861,-4.69319300712,3.96152274801,-0.844099686928,-2.80305928612,3.94347900661,-1.40684823405,Rest
-4.52177276512,3.9659527099,-0.877079171357,-4.83698301275,3.88007113959,-0.802167617576,-2.90794140787,3.86128728109,-1.32784218782,Rest
-4.533614295,3.94581662864,-0.870346785563,-4.808788894,3.86830608417,-0.804424184433,-2.92711340862,3.83192320149,-1.30911333678,Rest
-4.45861793913,3.95492284983,-0.887028873931,-4.759167245,3.88755411762,-0.816855957668,-2.86113917075,3.86182467786,-1.34975072773,Rest
-4.58718312063,3.96038702559,-0.863359260237,-4.87983807325,3.90010189363,-0.799227727455,-2.97335176337,3.88152605506,-1.30543789096,Rest
-4.34978864075,3.98202714131,-0.915453018568,-4.64639077,3.9745732301,-0.855410882735,-2.69028281112,3.9805973769,-1.47962041776,Rest
-4.51500617662,3.86942277535,-0.857013838736,-4.80033065837,3.8554675885,-0.803167086371,-2.86565022975,3.79634477963,-1.32477604567,Rest
-4.5223366475,3.89880849901,-0.86212257134,-4.83472748325,3.84566308031,-0.795424994197,-2.8712890535,3.78272269558,-1.31743012462,Rest
-4.27817557912,3.95302824628,-0.923998600143,-4.587747003,3.94778170497,-0.860505538423,-2.65644986862,3.85926135612,-1.45278907827,Rest
-4.25505640175,3.9741397699,-0.933980515104,-4.53530594212,3.96422508103,-0.874081072284,-2.61246704337,3.85560613689,-1.47584871804,Rest
-4.33118052237,3.85644259946,-0.890390640504,-4.67740430062,3.8576303548,-0.824737419916,-2.67111081037,3.74429408006,-1.40177414786,Rest
-4.73830359712,3.71732676025,-0.784526927,-4.99487007775,3.68872162447,-0.73850201648,-3.10248082725,3.65475462207,-1.17801038123,Rest
-4.94581231112,3.32912634692,-0.673120235362,-5.19392055612,3.30556673799,-0.636429976599,-3.23499318537,3.22494140621,-0.996892797424,Rest
-4.551658531,3.70549998732,-0.814098852558,-4.9057766625,3.73027689887,-0.760384574247,-2.9299328205,3.64070619393,-1.24259033124,Rest
-5.03265019687,3.29129283506,-0.653987999623,-5.27850291237,3.2689443105,-0.61929383478,-3.39569966225,3.16783055829,-0.932894800299,Rest
-5.11892420025,3.10437789285,-0.606451232994,-5.3388383265,3.10848954892,-0.582240809483,-3.40528566262,3.03202856403,-0.890388902556,Rest
-4.48737594025,3.74549655845,-0.834674118756,-4.74168689138,3.75732725049,-0.792403070166,-2.77712069687,3.6741502034,-1.32300702938,Rest
-4.57252217887,3.75378318194,-0.820943679461,-4.91085160387,3.69682588101,-0.752787129241,-2.97447952812,3.63784530867,-1.22301911117,Rest
-4.80033065837,3.7557881166,-0.782401960175,-5.08058019875,3.7049526604,-0.729238101843,-3.21018236087,3.69491390431,-1.15099813311,Rest
-4.853899484,3.63875074827,-0.749655150516,-5.12794631825,3.57667723479,-0.697487261529,-3.22202389075,3.58207112003,-1.11174567337,Rest
-4.68304312437,3.69352059415,-0.788700957061,-5.00558384287,3.64992968451,-0.72917162095,-3.05906188437,3.61971618538,-1.18327654758,Rest
-4.86461324913,3.534330476,-0.726538841836,-5.11948808262,3.47912222106,-0.679584006235,-3.1960853015,3.46695208267,-1.0847495469,Rest
-5.07324972787,3.52886722384,-0.695583188908,-5.31289973725,3.49055469609,-0.656996154401,-3.48874025412,3.4607437688,-0.991975187809,Rest
-4.22178734162,3.80456711976,-0.901174505463,-4.49132311687,3.89181529427,-0.866518661203,-2.38747797575,3.80565230025,-1.59400519666,Rest
-4.50823958812,3.77585065696,-0.837544363637,-4.7975112465,3.78554258866,-0.789063827922,-2.8261784635,3.7132900737,-1.31389086771,Rest
-4.3599385235,3.84047929013,-0.880856294058,-4.65428512325,3.84885654885,-0.826949025882,-2.66998304562,3.77261730344,-1.41297425451,Rest
-4.5042924115,3.71847553809,-0.825540439736,-4.7794670105,3.69618526736,-0.773346747502,-2.81828411025,3.64500807573,-1.29334301765,Rest
-4.56801111987,3.74690223636,-0.820248055015,-4.8200665415,3.75339762839,-0.778702450698,-2.891588819,3.67736469091,-1.27174536945,Rest
-4.51613394138,3.83551941754,-0.849292662116,-4.79807512888,3.79817032807,-0.79160292952,-2.88425834812,3.77947330555,-1.31037960175,Rest
-4.90746830963,3.2497667451,-0.662208401575,-5.17700408487,3.31763773787,-0.640841243986,-3.14477200537,3.31718112335,-1.05482404374,Rest
-4.4276044085,3.71835582348,-0.83981211518,-4.71800383162,3.75521577443,-0.795933176073,-2.7134019885,3.66034357306,-1.34898683961,Rest
-4.32666946337,3.75762308739,-0.868479350965,-4.61650500412,3.79098212973,-0.821180119235,-2.61754198475,3.67810389236,-1.40517474554,Rest
-4.96949537088,3.46105981183,-0.696461019385,-5.28357785375,3.34890592275,-0.633832985044,-3.34664189562,3.38108945637,-1.01029317203,Rest
-4.63567700487,3.90201058346,-0.84173478423,-4.9644204295,3.78071690624,-0.761562595258,-3.0652645905,3.75667494768,-1.22556302621,Rest
-4.59169417962,3.64053531778,-0.792852305785,-4.86686877862,3.65970864999,-0.751963699137,-2.8983554075,3.64847845345,-1.25880989061,Rest
-4.60071629763,3.62167909891,-0.78719896308,-4.8651771315,3.62590731371,-0.745277554282,-2.9254217615,3.57089999576,-1.22064450424,Rest
-4.89167960312,3.32874887181,-0.68049200722,-5.205762086,3.37706777016,-0.64871727028,-3.21469341987,3.26104244307,-1.01441786732,Rest
-4.73604806762,3.54381473502,-0.748264097918,-5.01742537275,3.55289196197,-0.708110574254,-3.04214541312,3.46821377318,-1.14005522491,Rest
-4.16765463363,4.02518968355,-0.965816517298,-4.57816100262,3.90014082255,-0.851901193582,-2.62205304375,3.85115314968,-1.46875485943,Rest
-4.0802528655,3.94566126273,-0.96701390644,-4.40166581925,3.98287026398,-0.904855213351,-2.31022609038,3.90190595268,-1.68897146861,Rest
-3.929132389,4.00543619696,-1.0194200145,-4.22065957687,4.05173775423,-0.959977387523,-2.19406632112,3.99268219188,-1.81976367507,Rest
-3.95112380163,4.04969278682,-1.02494707585,-4.23983157762,4.06438182101,-0.958618696663,-2.20985502762,3.98139767697,-1.80165559604,Rest
-4.52628382412,3.61687496075,-0.799082669424,-4.79863901125,3.60758441119,-0.751793248612,-2.78614281487,3.51953313017,-1.26322782572,Rest
-3.98157344988,3.94972129063,-0.992000107583,-4.27253675538,4.03320553351,-0.943983812061,-2.26285997088,3.97686179304,-1.75744935357,Rest
-3.60095284675,4.19468320074,-1.16488145756,-3.94830438975,4.26255079744,-1.07959021815,-1.88900595625,4.18387270931,-2.21485416468,Rest
-3.42332989863,4.28620784061,-1.25205807431,-3.71372932175,4.34749010678,-1.17065346721,-1.64484488787,4.26434497978,-2.59255143826,Rest
-3.46505719437,4.28528846749,-1.23671507485,-3.77857579488,4.35345821276,-1.1521426191,-1.73506606788,4.27835179338,-2.46581491771,Rest
-3.62294425938,4.19647215188,-1.15830436558,-3.93702674225,4.25890305189,-1.08175619083,-1.89520866237,4.17792773302,-2.20446846617,Rest
-4.24377875425,3.79785408199,-0.894922733233,-4.5088034705,3.84098131175,-0.851884837492,-2.49743503887,3.76744998152,-1.50852771859,Rest
-4.82739701238,3.30036644948,-0.683674129354,-5.09580502288,3.33107951716,-0.653690536079,-3.11996118087,3.28628940437,-1.05331099134,Rest
-4.54771135438,3.4985788745,-0.769305393829,-4.84656901313,3.56016661524,-0.734574624977,-2.81772022787,3.50228387169,-1.24294947279,Rest
-3.70470720375,4.16906654178,-1.12534306019,-3.98608450887,4.23575885424,-1.06263649072,-1.9510330175,4.16236259722,-2.13341473972,Rest
-3.52877590275,4.26914284782,-1.20980843371,-3.865977563,4.35831045768,-1.12735016866,-1.81513736512,4.25967356994,-2.34674997704,Rest
-3.40641342737,4.35850506251,-1.27949973056,-3.7148570865,4.43208447538,-1.19306998148,-1.62567288712,4.33068238907,-2.66393222361,Rest
-3.35284460175,4.35576721155,-1.29912588531,-3.67482143787,4.42047642423,-1.20290917503,-1.60255370975,4.32936519832,-2.70154140356,Rest
-3.48422919513,4.27172512526,-1.22601725835,-3.78759791287,4.35874988383,-1.15079530195,-1.72153289087,4.26847676354,-2.47946280095,Rest
-3.19721306625,4.43668658372,-1.38767310523,-3.49099578363,4.49922870677,-1.28880955052,-1.44410276238,4.41528609829,-3.05745976902,Rest
-3.86259426875,4.06821418694,-1.05323363105,-4.20261534087,4.09791098526,-0.975085905532,-2.09595078787,4.01000981425,-1.91321754186,Rest
-3.35735566075,4.31949961502,-1.28657790579,-3.63986073063,4.38420831096,-1.20449891779,-1.52304629487,4.30920073123,-2.82933010358,Rest
-3.76391485312,4.02864400367,-1.07033345888,-4.05938921762,4.10743777708,-1.01183640121,-2.0006546665,4.08248097963,-2.04057254257,Rest
-3.649446731,4.13434681217,-1.13286947774,-3.93646285988,4.23335905104,-1.07542207351,-1.88054772062,4.10999527944,-2.18553096758,Rest
-4.01822580425,3.9093133419,-0.972895385262,-4.3779827595,3.98434928951,-0.910087935103,-2.3525172685,3.90046597591,-1.65799674593,Rest
-4.1253634555,3.87946746506,-0.940394102704,-4.43098770275,3.93955508258,-0.889091856457,-2.368305975,3.8531184768,-1.62695129661,Rest
-3.7554566175,4.103102026,-1.09257074276,-4.073486277,4.17264362015,-1.02434213261,-2.0277210205,4.07505210783,-2.00967098858,Rest
-3.7509455585,4.12067770346,-1.09857038424,-4.05262262912,4.18757256342,-1.03329940798,-2.03787090325,4.14196396863,-2.03249575919,Rest
-3.572758728,4.26589982431,-1.19400725016,-3.89248003462,4.32516495204,-1.11115918735,-1.80329583525,4.18813611761,-2.32248976332,Rest
-3.07090341425,4.4040204061,-1.4341123155,-3.39739130938,4.4569248295,-1.31186678944,-1.30031275675,4.38122758469,-3.36936445632,Rest
-3.978754038,4.028301807,-1.0124530867,-4.30975299212,4.041907566,-0.937851327764,-2.24819902912,3.9691564219,-1.76548266879,Rest
-3.8005672075,4.11428612976,-1.08254528999,-4.07235851225,4.1806163226,-1.02658356577,-2.02997655,4.07816637246,-2.00897215904,Rest
-3.67820473212,4.14177922636,-1.12603281437,-4.01540639238,4.24027394611,-1.05600119434,-1.917200075,4.18451179841,-2.18261612493,Rest
-3.67933249687,4.1754115359,-1.1348285428,-3.99736215637,4.24011497173,-1.06072825175,-1.94708584087,4.11969974089,-2.11582851378,Rest
-3.5163704905,4.23074088081,-1.20315560952,-3.825378032,4.31064026116,-1.1268534051,-1.772846187,4.26360946193,-2.40495170602,Rest
-4.0667196885,3.98876601668,-0.980831314232,-4.39038817175,4.04015185636,-0.920226571845,-2.3074066785,3.94020797616,-1.70763481482,Rest
-3.676513085,4.17090341571,-1.13447261557,-3.99285109737,4.22097348609,-1.05713270622,-1.94539419375,4.14462598332,-2.13048131666,Rest
-3.78534238338,4.09557481319,-1.08195624026,-4.08307227737,4.13869838545,-1.01362359133,-2.034487609,4.06655205279,-1.99880895553,Rest
-3.85977485688,4.06374872112,-1.05284605238,-4.16201580987,4.09878178048,-0.984806874293,-2.09256749362,4.0365424009,-1.92899030172,Rest
-3.89360779937,4.05398310927,-1.0411893848,-4.22404287112,4.11163289173,-0.973388059065,-2.13880584837,3.99732675945,-1.86895260385,Rest
-4.1163413375,3.89546335096,-0.946341187858,-4.36050240587,3.99550160357,-0.916293865172,-2.28992632487,3.88591465798,-1.69696055972,Rest
-3.93195180087,4.03209694162,-1.02546957486,-4.23757604812,4.06804047716,-0.959992323668,-2.16699996712,3.99192206853,-1.84214219155,Rest
-3.93420733038,4.06158141457,-1.0323760477,-4.23926769525,4.11166061538,-0.969898791716,-2.16136114337,4.0494855008,-1.87358115196,Rest
-4.02048133375,3.92047995666,-0.97512701371,-4.32328616912,3.98967525862,-0.922833951432,-2.27188208887,3.89862903535,-1.71603493616,Rest
-4.37008840625,3.67335242838,-0.840567074828,-4.664435006,3.70984621237,-0.795347390971,-2.66490810425,3.66960006438,-1.37700810716,Rest
-4.31200852162,3.77090835382,-0.87451319609,-4.63680476962,3.81060640649,-0.82181730649,-2.539726217,3.73852840931,-1.47202024545,Rest
-4.40786852537,3.66945566273,-0.832478473803,-4.65936006462,3.73530901372,-0.801678548536,-2.66208869237,3.63581801281,-1.36577643834,Rest
-4.33399993425,3.70906224458,-0.855805791613,-4.6080467685,3.76510709601,-0.817072240184,-2.55043998212,3.70807742133,-1.45389715003,Rest
-4.40786852537,3.74592417835,-0.84982665812,-4.65372124087,3.75342198344,-0.80654207443,-2.64629998587,3.65800849282,-1.38231058925,Rest
-4.384749348,3.68027084169,-0.839334372298,-4.71123724312,3.74464495072,-0.794832600754,-2.67618575175,3.63711929979,-1.35906832977,Rest
-4.5674472375,3.61189088131,-0.790789842444,-4.82683313,3.65449726726,-0.757121112091,-2.83689222862,3.58121865057,-1.26237388027,Rest
-4.45297911537,3.72172239582,-0.835782584961,-4.75522006837,3.6932079137,-0.776663931551,-2.78670669725,3.64320715109,-1.30735220706,Rest
-4.42816829087,3.70518484227,-0.836730810323,-4.75296453888,3.75431170249,-0.789888431058,-2.7540015195,3.65161379363,-1.32593020293,Rest
-4.46707617475,3.67189170706,-0.821989946761,-4.79469183463,3.68610003424,-0.768787684668,-2.78896222675,3.67068127155,-1.31614592566,Rest
-4.4501597035,3.75242499175,-0.843211309652,-4.72702594963,3.76152365468,-0.79574846738,-2.76640693175,3.66720433293,-1.32561999135,Rest
-4.24659816612,3.82791993624,-0.901408559628,-4.55335017812,3.88515263277,-0.853251448008,-2.55889821775,3.75548692817,-1.46761872048,Rest
-4.36952452387,3.76944123612,-0.862666227304,-4.64018806387,3.80661948077,-0.820358879504,-2.62825574987,3.71359074588,-1.41294877641,Rest
-4.429859938,3.69373791386,-0.83382724636,-4.73266477337,3.76317332756,-0.795148929357,-2.69479387012,3.64740108211,-1.35349910156,Rest
-4.37741887712,3.68921615687,-0.842783443948,-4.70390677225,3.79086994713,-0.805898188606,-2.69028281112,3.67942816119,-1.36767337098,Rest
-4.40786852537,3.72081326216,-0.844129819376,-4.7072900665,3.73597738779,-0.793657780807,-2.6953577525,3.64515479792,-1.35238255276,Rest
-4.11746910225,3.97841438347,-0.966228108741,-4.42478499662,4.00608291732,-0.905373463427,-2.3931167995,3.90736488717,-1.63275143444,Rest
-4.637368652,3.907202133,-0.84254723448,-5.01968090225,3.63451109835,-0.724052219478,-2.96940458675,3.79990973406,-1.2796874333,Rest
-4.091530513,4.04274264424,-0.988075887835,-4.39884640737,4.05046090885,-0.920800713127,-2.40326668225,3.99352931518,-1.66170876694,Rest
-4.17611286925,4.04419820114,-0.96841209224,-4.461437351,4.04649850116,-0.906994356932,-2.52732080475,3.98448064321,-1.57656306857,Rest
-4.17103792788,3.96696084061,-0.951072828682,-4.43549876175,4.02718002209,-0.907942993203,-2.42413033013,3.97912734482,-1.64146592919,Rest
-4.8245776005,3.55798536545,-0.737470854461,-5.23339232237,3.36993577199,-0.643929513478,-3.14477200538,3.4804065875,-1.10672779507,Rest
-4.42873217325,3.76432112218,-0.849977143552,-4.73040924388,3.7585574947,-0.794552289439,-2.76020422562,3.66531416331,-1.32791411928,Rest
-4.40843240775,3.80601121535,-0.863347980261,-4.68586253625,3.79338137175,-0.809537484808,-2.74159610725,3.72726829965,-1.359524946,Rest
-4.37234393575,3.79080821383,-0.866996802981,-4.7072900665,3.79535047609,-0.806270789025,-2.738212813,3.75284728935,-1.37054624518,Rest
-4.31821122775,3.83093551772,-0.887157972519,-4.62439935737,3.87078858364,-0.83703596608,-2.66208869237,3.81373785359,-1.43261111642,Rest
-4.30636969787,3.83510456511,-0.890565565469,-4.587747003,3.85306500279,-0.839859957464,-2.602881043,3.82518718497,-1.46959738912,Rest
-4.2922726385,3.84931138593,-0.896800299077,-4.59113029725,3.88960143836,-0.847199096198,-2.62600022037,3.78505098113,-1.44137496706,Rest
-4.26915346112,3.86061395774,-0.904304329394,-4.57816100262,3.90727923864,-0.85346042579,-2.58427292463,3.83138679751,-1.48257823739,Rest
-4.317083463,3.8193807507,-0.884713205903,-4.5990246505,3.85900532168,-0.839092115164,-2.61077539625,3.78293636178,-1.44897043507,Rest
-4.17611286925,3.91427812066,-0.937301802708,-4.4997813525,3.92199872476,-0.871597621644,-2.51322374537,3.85696166914,-1.53466704914,Rest
-4.19190157575,3.91832786121,-0.934737562513,-4.47891770462,3.97482566008,-0.887452264633,-2.48108245,3.88149693342,-1.56443689867,Rest
-4.2291178125,3.93402430883,-0.930223390136,-4.54996688387,3.958746605,-0.870060531435,-2.58314515987,3.85469591487,-1.49224905156,Rest
-4.3238500515,3.84553624554,-0.889377799816,-4.60466347425,3.88949876274,-0.844686866802,-2.593858925,3.83133737719,-1.47708009108,Rest
-3.66410767275,4.29495387217,-1.17216912159,-3.89642721125,4.28689401461,-1.10021149689,-1.87096172025,4.2482164645,-2.27060576308,Rest
-4.19415710525,3.94484291206,-0.940556782464,-4.50936735288,3.99841636366,-0.886691203171,-2.50532939212,3.88068877206,-1.54897347401,Rest
-4.15581310375,3.95962925469,-0.952792908593,-4.47666217512,3.973273788,-0.887552741879,-2.50250998025,3.90400475464,-1.5600356384,Rest
-4.17160181025,3.95672513751,-0.94849060804,-4.5133145295,3.98632472398,-0.883236631954,-2.45119668412,3.90794614902,-1.59430133629,Rest
-4.2516731075,3.85914769788,-0.907677424934,-4.58718312063,3.94066142738,-0.859059105285,-2.53859845225,3.82281626385,-1.50587670156,Rest
-4.34978864075,3.83368544541,-0.881349822263,-4.64582688762,3.83590736843,-0.825667305565,-2.65757763337,3.77172785604,-1.41923524968,Rest
-4.3509164055,3.79833712629,-0.872997036093,-4.68304312437,3.82886243343,-0.817601361281,-2.64517222113,3.76968079077,-1.42511733666,Rest
-3.79774779562,4.13417603498,-1.08858625097,-4.12423569075,4.18373226381,-1.01442608462,-2.048020786,4.08349958612,-1.99387604561,Rest
-3.735156852,4.14605282762,-1.11000768961,-4.03570615788,4.22784065163,-1.04760864301,-2.02659325575,4.13816997477,-2.04193414886,Rest
-3.71372932175,4.18195652875,-1.12608005765,-4.02950345175,4.22857810504,-1.04940426424,-1.98091878338,4.15298320281,-2.09649342399,Rest
-4.51444229425,3.64663930825,-0.807771828848,-4.79581959937,3.67348724223,-0.765976944319,-2.81602858075,3.57321560726,-1.26888470937,Rest
-4.24377875425,3.84998982433,-0.907207950102,-4.583235944,3.86200795122,-0.842637821488,-2.52901245187,3.79956375762,-1.50239029262,Rest
-4.32554169862,4.05456283959,-0.937353774876,-4.46312899812,3.93885844929,-0.882532960833,-2.45345221362,3.82301434035,-1.5582183827,Rest
-4.141152162,3.90310500478,-0.942516684269,-4.47778993988,3.96494560596,-0.885469318391,-2.47318809675,3.89967793055,-1.57678178044,Rest
-4.05600592337,3.9964103076,-0.985306822301,-4.3824938185,4.01635077044,-0.916453265373,-2.37563644588,3.9495422485,-1.66251963989,Rest
-3.94604886025,4.03783549891,-1.02326039081,-4.28945322662,4.09138033071,-0.95382327643,-2.23861302875,4.01722958879,-1.79451720204,Rest
-3.94999603687,4.05223996818,-1.02588456554,-4.29509205037,4.10958430435,-0.956809366633,-2.24143244063,3.99702384445,-1.78324529083,Rest
-4.02048133375,4.06651936928,-1.01145087658,-4.31990287487,4.08516490427,-0.945661285126,-2.31248161987,3.98209561176,-1.72200097832,Rest
-3.960709802,4.06458619608,-1.02622671169,-4.25054534275,4.13258294108,-0.972247701845,-2.2803403245,4.00480934015,-1.75623318025,Rest
-3.9674763905,4.06939279461,-1.02568796738,-4.24208710712,4.12556442426,-0.972531756204,-2.241996323,4.01589347453,-1.79121322963,Rest
-4.2020514585,3.84166800815,-0.914236307216,-4.515570059,3.90551364681,-0.864899358393,-2.48277409712,3.78395371636,-1.52408296862,Rest
-4.23024557725,3.77214955207,-0.891709354265,-4.51218676475,3.84020689276,-0.851074455242,-2.48390186187,3.75434286933,-1.51146988814,Rest
-4.39997417212,3.68275680209,-0.836995095431,-4.67909594775,3.65345635278,-0.7808038975,-2.72749904787,3.64227994734,-1.33539183091,Rest
-4.4230933495,3.73611219718,-0.844683098901,-4.7478895975,3.69942250869,-0.77917197372,-2.72637128312,3.65601846877,-1.3409833398,Rest
-4.58210817925,3.56284624271,-0.77755611682,-4.86799654337,3.58684825239,-0.736822267729,-2.90906917262,3.51863501138,-1.20953982274,Rest
-3.95450709587,4.0690258155,-1.02895903759,-4.25731193125,4.07809386229,-0.957903467762,-2.22226043987,4.01722717472,-1.80772113954,Rest
-3.58347249312,4.18319608799,-1.16735822474,-3.90544932925,4.2648524642,-1.09202606529,-1.73055500887,4.20808000199,-2.4316360823,Rest
-4.42591276137,3.7677487368,-0.851293041671,-4.71800383163,3.80958160508,-0.80745623383,-2.71960469463,3.70793164543,-1.36340831179,Rest
-4.3734717005,3.80865975766,-0.870855013701,-4.69714018375,3.81910751453,-0.813070797363,-2.63502233837,3.74565594011,-1.42148925478,Rest
-4.208818047,3.92612084102,-0.93283216266,-4.5358698245,3.97724367177,-0.876842551849,-2.53859845225,3.85514449577,-1.51861137879,Rest
-4.23983157762,3.89049577058,-0.917606206602,-4.56913888462,3.91896510294,-0.857703213208,-2.5329596285,3.83186250298,-1.51280046467,Rest
-4.19641263475,3.94572299079,-0.940260964357,-4.49470641112,3.95628164474,-0.880209135561,-2.50025445075,3.85767935587,-1.54291470403,Rest
-4.17893228112,3.92630609359,-0.939547671381,-4.4817371165,3.91765801076,-0.874138288106,-2.458527155,3.85540528134,-1.56817681411,Rest
-3.96860415525,4.02458127006,-1.01410498821,-4.2877615795,4.05266872332,-0.945171192051,-2.26737102988,3.97329619508,-1.75238024246,Rest
-3.94999603687,4.06923460656,-1.03018700996,-4.22742616538,4.12538407307,-0.975861886569,-2.20026902725,4.0335273702,-1.83319735916,Rest
-3.99285109737,4.06328956029,-1.01764114443,-4.29170875612,4.1455594859,-0.965946135088,-2.25271008813,4.04119887468,-1.79392763231,Rest
-4.00074545062,4.02432445507,-1.00589365276,-4.31144463925,4.08704979524,-0.947953676137,-2.30402338425,4.00184441333,-1.73689400927,Rest
-3.86484979825,4.12650200782,-1.06770048598,-4.17893228112,4.18146210018,-1.0006053745,-2.19519408587,4.06625550675,-1.85234441588,Rest
-3.90150215262,4.10373893358,-1.05183561947,-4.19359322288,4.13035548801,-0.984920393681,-2.14388078975,4.07173040097,-1.89923358633,Rest
-3.8456777975,4.16044323515,-1.08184914447,-4.1659629865,4.1913546485,-1.00609502823,-2.13880584837,4.08385989237,-1.90941122378,Rest
-3.88514956375,4.13040895172,-1.06312739933,-4.16427133938,4.15761357959,-0.998401218547,-2.16023337863,4.08199272939,-1.88960728492,Rest
-3.86541368062,4.17815665213,-1.08090802107,-4.18795439912,4.21836899773,-1.00726239966,-2.16136114337,4.1018336892,-1.89780116191,Rest
-3.8095893255,4.11652301176,-1.08056870703,-4.10844698425,4.19606559255,-1.02132645465,-2.05196796263,4.08502947146,-1.99078618471,Rest
-3.81297261975,4.11865785602,-1.08016979579,-4.10393592525,4.16591154375,-1.01510150734,-2.10610067062,4.09270998088,-1.94326417439,Rest
-3.8231225025,4.12583142975,-1.07917845349,-4.15524922137,4.14286031035,-0.997018491462,-2.1450085545,4.08153877601,-1.90280769158,Rest
-3.80620603125,4.15090894758,-1.09056338871,-4.1028081605,4.22529612098,-1.02985466434,-2.06775666913,4.0882534217,-1.97714435298,Rest
-3.9494321545,4.09943277766,-1.03798030129,-4.2381399305,4.11944476494,-0.97199357088,-2.232974205,4.01823387553,-1.79949856408,Rest
-3.89191615225,4.12469670089,-1.05981129591,-4.13776886775,4.1839523538,-1.01116144655,-2.12809208325,4.10024788126,-1.92672484125,Rest
-3.983265097,4.07345068294,-1.02264112072,-4.28381440287,4.09105546737,-0.955002967594,-2.25496561762,4.02516124583,-1.78502111712,Rest
-3.86259426875,4.11710057758,-1.06588999287,-4.15355757425,4.12878525561,-0.994035879315,-2.12358102425,4.05818760767,-1.91101142896,Rest
-3.78139520675,4.13868321212,-1.09448576143,-4.09434992487,4.20864515427,-1.02791535445,-2.01362396112,4.14509619359,-2.05852546136,Rest
-3.74474285237,4.16565061845,-1.11239964469,-4.0892749835,4.19981531052,-1.02703176662,-2.01926278487,4.1181206198,-2.03941787599,Rest
-3.78985344238,4.12652647238,-1.08883536926,-4.10675533712,4.19336052111,-1.02108846933,-2.07903431663,4.11521307053,-1.97938679396,Rest
-3.87218026912,4.15835289703,-1.07390477922,-4.16427133938,4.19149874534,-1.00653833618,-2.12527267137,4.11540962885,-1.93641488186,Rest
-3.95112380162,4.06059176403,-1.0277055258,-4.21840404737,4.16584296514,-0.987540055043,-2.214929969,4.06875953665,-1.83696983363,Rest
-4.34302205225,3.78812452746,-0.872232395297,-4.664435006,3.7921119485,-0.812984197148,-2.679569046,3.76199129039,-1.40395385445,Rest
-4.5268477065,3.63156780334,-0.802228844174,-4.82175818862,3.63631471214,-0.754147049663,-2.82335905162,3.57924847224,-1.26772699001,Rest
-4.49188699925,3.69998818472,-0.823704644694,-4.7749559515,3.73233296757,-0.781647622613,-2.82956175775,3.6526555814,-1.29089092026,Rest
-4.65654065275,3.54155464292,-0.760554864012,-4.939609605,3.55613750926,-0.719922786136,-2.936699409,3.48944774677,-1.18822094494,Rest
-4.24039546,3.84322305087,-0.906335997933,-4.5809804145,3.89685332308,-0.850659241141,-2.58201739512,3.81834560517,-1.47882257199,Rest
-4.38813264225,3.79620071809,-0.865106191534,-4.65372124087,3.86529382806,-0.830581297845,-2.68971892875,3.69922567921,-1.37532053616,Rest
-3.77180920637,4.08171853279,-1.08216463492,-4.10619145475,4.0967890516,-0.997710188809,-2.04238196225,4.03632644385,-1.97628382861,Rest
-4.60409959188,3.57605359779,-0.776710739293,-4.8651771315,3.57872719361,-0.735580040949,-2.91583576112,3.55478886752,-1.21913206324,Rest
-4.71687606687,3.44737296459,-0.730859347524,-4.98359243025,3.46125296054,-0.694529701011,-2.98801270513,3.39709246197,-1.13690696701,Rest
-4.529103236,3.66258058529,-0.808676772077,-4.87589089663,3.64048640721,-0.746629997346,-2.8758001125,3.5777810133,-1.244099337,Rest
-4.46707617475,3.70375852399,-0.829123654735,-4.7388674795,3.70089642005,-0.780966430494,-2.783323403,3.6320741884,-1.30494148991,Rest
-4.145663221,3.98227834027,-0.960588964414,-4.45410688012,3.99820832787,-0.897645349667,-2.46924092012,3.90271782696,-1.58053343242,Rest
-4.3464053465,3.79687491256,-0.873566685542,-4.66612665312,3.81791656095,-0.818219659424,-2.63107516175,3.78322145539,-1.43789942241,Rest
-4.26633404925,3.85544998096,-0.903691538555,-4.53474205975,3.9299290915,-0.866626820163,-2.55213162925,3.80912640637,-1.49252740835,Rest
-4.47666217512,3.67829074414,-0.821659218465,-4.795255717,3.68379068883,-0.768215691974,-2.86395858263,3.57112183928,-1.2469181157,Rest
-4.16765463363,3.9321179781,-0.943484603157,-4.47835382225,3.96952029827,-0.886379338442,-2.43766350712,3.86186695665,-1.58424940332,Rest
-4.4727149985,3.69769348928,-0.82672235779,-4.76198665688,3.73483331218,-0.784301507184,-2.75118210762,3.67764236277,-1.33674988383,Rest
-4.41350734913,3.72291657795,-0.843527898212,-4.69093747762,3.74029597663,-0.79734509242,-2.70832704712,3.63169803964,-1.34093777319,Rest
-4.30467805075,3.79349804817,-0.881250119857,-4.59056641487,3.81553995529,-0.83116975346,-2.58596457175,3.75620008971,-1.45253346884,Rest
-4.0937860425,3.97631683379,-0.971305484096,-4.39546311312,3.99775404695,-0.909518279203,-2.38578632862,3.92392933833,-1.64471113412,Rest
-4.31821122775,3.82246358492,-0.885196064602,-4.61312170988,3.88718436801,-0.842636421166,-2.625436338,3.78970170875,-1.44345595203,Rest
-4.64075194625,3.79978321301,-0.818786105575,-5.04505560912,3.71598874452,-0.736560512395,-3.08048941463,3.6256676872,-1.17697781073,Rest
-4.61988829837,3.7913964427,-0.820668422661,-4.94524842875,3.72464605339,-0.753176732585,-3.0021097645,3.71398051746,-1.23712349274,Rest
-4.80822501162,3.32210051002,-0.690920350438,-5.08283572825,3.34723750573,-0.658537415862,-3.07090341425,3.30907606024,-1.07755784336,Rest
-4.32554169862,3.70065133877,-0.855534773817,-4.62947429875,3.73944326957,-0.807746847321,-2.60908374912,3.67751751462,-1.40950535446,Rest
-4.38418546562,3.69941112037,-0.843808080058,-4.66274335887,3.71999998034,-0.797813581838,-2.634458456,3.65923845706,-1.38899076155,Rest
-4.53248653025,3.62079564728,-0.798854143992,-4.8335997185,3.67819466124,-0.760963852088,-2.84760599375,3.60072078746,-1.26447296268,Rest
-4.43606264413,3.92596724686,-0.885011678556,-4.75070900937,3.90352822909,-0.821672769557,-2.778812344,3.85731222425,-1.3881154057,Rest
-4.53192264787,3.76024702806,-0.829724450356,-4.831344189,3.75425821858,-0.777062877682,-2.88369446575,3.70178897157,-1.28369666604,Rest
-4.63229371062,3.63738902959,-0.785224179816,-4.87250760238,3.63872728598,-0.746787400435,-2.93839105612,3.60656270926,-1.22739371322,Rest
-4.44057370312,4.01842121173,-0.904932893895,-4.71687606687,3.94767985794,-0.836926771442,-2.76133199037,3.89692214777,-1.41124723914,Rest
-4.226862283,3.95997630165,-0.936859551251,-4.547147472,3.9533062614,-0.869403573502,-2.54141786412,3.85693034226,-1.51762935041,Rest
-4.26238687262,3.86313831519,-0.906332163324,-4.5764693555,3.89715031718,-0.851562638018,-2.56792033575,3.81440832321,-1.48540757675,Rest
-4.24772593088,4.02098472345,-0.946620565659,-4.560680649,4.07648879638,-0.893833423148,-2.58088963037,4.00680353331,-1.5524892991,Rest
-4.33118052237,3.83245422057,-0.884852109205,-4.5990246505,3.86924827636,-0.841319316681,-2.56848421812,3.80591844037,-1.48177606602,Rest
-3.82481414962,4.07803191575,-1.06620393991,-4.27930334388,4.08680842055,-0.955017228774,-2.52619304,3.78724157651,-1.49918930048,Rest
-4.07461404175,3.99705840879,-0.980966140064,-4.38982428937,4.04506652827,-0.92146433698,-2.37676421062,3.95216685037,-1.66283505646,Rest
-3.79662003088,4.12764791083,-1.08719015263,-4.12198016125,4.13854553553,-1.00401879039,-2.07790655187,4.0944918055,-1.97048890472,Rest
-3.95450709588,4.03407421689,-1.02012061657,-4.25336475463,4.09999146295,-0.963940715053,-2.219441028,4.01139691395,-1.80739062825,Rest
-3.76335097075,4.13951286243,-1.09995397575,-4.08814721875,4.1909193314,-1.02513904396,-2.05535125687,4.09101443016,-1.99042106135,Rest
-4.13269392637,3.82910757091,-0.926540324333,-4.4005380545,3.86030035618,-0.877233717416,-2.50250998025,3.7501491554,-1.49855512465,Rest
-3.97029580237,4.02517704459,-1.01382296054,-4.27592004963,4.10447772947,-0.959905162359,-2.260040559,4.01861431514,-1.77811601617,Rest
-4.02048133375,4.05114619976,-1.00762716289,-4.3328721695,4.06660397056,-0.93854695257,-2.2983845605,3.96976331787,-1.72719717409,Rest
-3.96127368438,4.06085110085,-1.02513772701,-4.26689793163,4.09090157572,-0.958753089781,-2.25214620575,3.97615226389,-1.76549473286,Rest
-4.3915159365,3.79071645079,-0.863190867481,-4.64131582862,3.80998755287,-0.820885217372,-2.64235280925,3.76107616606,-1.42338152305,Rest
-4.204306988,3.92442299395,-0.933429220356,-4.45805405675,3.93017698629,-0.881590249077,-2.42582197725,3.88012030797,-1.59950744299,Rest
-4.27817557912,3.8152812785,-0.891801004409,-4.56913888462,3.85697485932,-0.844136052047,-2.58765621887,3.73826368057,-1.44465236661,Rest
-3.9494321545,4.0060762899,-1.01434234928,-4.2561841665,4.03805676906,-0.94875047956,-2.260040559,3.94006271871,-1.74335929637,Rest
-4.19641263475,3.82354813515,-0.911146845638,-4.43493487937,3.87355487334,-0.873418658604,-2.41736374162,3.76946451746,-1.55932864076,Rest
-4.19810428187,3.74160048579,-0.891259538727,-4.57703323787,3.8344478724,-0.837758362921,-2.544237276,3.69658233618,-1.45292358187,Rest
-4.35148028787,3.65329077287,-0.839551263292,-4.65936006462,3.707046577,-0.795612814975,-2.66434422187,3.62746084061,-1.36148355413,Rest
-4.393771466,3.60002293003,-0.819346877252,-4.69714018375,3.68077864658,-0.783621204092,-2.66208869237,3.61316004116,-1.35726508719,Rest
-4.109574749,3.8741311129,-0.94270851597,-4.44452087975,3.92619259453,-0.883378141482,-2.41736374162,3.84729101434,-1.59152342202,Rest
-4.27535616725,3.76337293793,-0.880247818126,-4.58436370875,3.77337260431,-0.823096255891,-2.55946210013,3.72239590014,-1.45436648582,Rest
-4.28719769712,3.76333048201,-0.877806611189,-4.54545582488,3.83265831146,-0.843184591187,-2.55833433537,3.73926687152,-1.46160211346,Rest
-4.08983886587,3.78991846322,-0.926666939092,-4.35035252312,3.9017635069,-0.896884444687,-2.3840946815,3.77707996089,-1.58428270077,Rest
-3.98157344987,3.96634393608,-0.996175001168,-4.253928637,4.06524638447,-0.955645176817,-2.196885733,3.96713528951,-1.80579955977,Rest
-3.85864709212,4.0475958822,-1.04896762662,-4.13269392637,4.14592916216,-1.0032025686,-2.11004784725,4.00325971903,-1.89723646516,Rest
-3.92518521237,4.10988635029,-1.04705539431,-4.22178734162,4.14548247865,-0.981925934017,-2.20759949813,4.0358860258,-1.82817853928,Rest
-4.02724792225,4.0582954173,-1.00770935777,-4.35204417025,4.11894194485,-0.946438451385,-2.32657867925,3.99271583817,-1.71613187801,Rest
-4.001309333,4.0954441112,-1.02352599371,-4.30467805075,4.11733164301,-0.956478415916,-2.34067573862,4.03489101852,-1.72381460274,Rest
-3.8862773285,4.10644899581,-1.056653617,-4.18964604625,4.11784500667,-0.982862265981,-2.138241966,3.97963300924,-1.86117056559,Rest
-4.08758333637,3.98587064423,-0.975116668266,-4.42478499662,4.02911342607,-0.91057835107,-2.413416565,3.95346454392,-1.6381194201,Rest
-4.2742284025,3.85821820291,-0.902670105474,-4.54432806012,3.89869101874,-0.857924640817,-2.58201739512,3.80426323214,-1.47336855256,Rest
-4.36501346488,3.76043170074,-0.861493722985,-4.677968183,3.77154546476,-0.806235809483,-2.65644986862,3.68870968592,-1.38858622159,Rest
-4.14735486813,3.92361394962,-0.94605214031,-4.47553441037,3.91493876266,-0.874742188014,-2.557770453,3.79023528754,-1.48185122832,Rest
-4.21163745887,3.93549498917,-0.934433466223,-4.57252217887,3.87421248788,-0.847281289476,-2.5780702185,3.81128159833,-1.47834669939,Rest
-4.30073087412,3.8033651341,-0.884353205401,-4.58379982637,3.81264050509,-0.831764180265,-2.56284539437,3.75378894186,-1.46469582211,Rest
-4.2697173435,3.82734247149,-0.896392469005,-4.58154429687,3.80507956172,-0.830523359628,-2.51209598062,3.73593819514,-1.48717971923,Rest
-4.16934628075,3.89388785224,-0.933932465677,-4.47553441038,3.90702663573,-0.872974326077,-2.41961927112,3.84302113444,-1.58827513911,Rest
-3.85131662125,4.03709773912,-1.04823833929,-4.181751693,4.10036652698,-0.98053802043,-2.1089200825,4.00568005395,-1.89939869566,Rest
-3.95563486062,4.00996001831,-1.01373361283,-4.27310063775,4.05397138362,-0.948718910996,-2.21211055712,3.95780965105,-1.78915544628,Rest
-4.20374310562,3.86607457159,-0.919674317496,-4.50034523487,3.91660857265,-0.870290692878,-2.52337362812,3.83265233822,-1.5188604238,Rest
-4.09491380725,3.90324235101,-0.953192798368,-4.407304643,3.96412052827,-0.899443276418,-2.37620032825,3.87006256504,-1.62867689186,Rest
-3.62745531838,4.20121625904,-1.15817174584,-3.94830438975,4.29591913888,-1.0880415274,-1.87039783787,4.14130629773,-2.2141312473,Rest
-4.23080945962,3.93838601977,-0.930882389612,-4.53248653025,3.93996507042,-0.869272317551,-2.56735645337,3.83445616467,-1.49354257358,Rest
-4.096041572,3.96074705146,-0.966969446437,-4.40899629012,4.02427483626,-0.912741715223,-2.37394479875,3.91846483615,-1.65061329068,Rest
-4.127618985,3.96120686074,-0.959683264162,-4.44959582112,3.98433073525,-0.895436550963,-2.42413033012,3.90149229139,-1.60943998881,Rest
-4.1298745145,3.97577559868,-0.962686780124,-4.49639805825,3.94883425223,-0.878221679013,-2.449505037,3.84385111236,-1.56923584736,Rest
-4.172729575,3.90588422557,-0.936050169408,-4.44846805638,3.91525907319,-0.880136492736,-2.4743158615,3.86087820339,-1.56038210944,Rest
-4.21840404737,3.8282770959,-0.907517879488,-4.51218676475,3.8996042215,-0.864238211939,-2.52732080475,3.79458216261,-1.5014248114,Rest
-4.15863251562,3.86335955007,-0.928997581671,-4.45861793913,3.94300616302,-0.884356142835,-2.43315244812,3.82779434102,-1.57318311229,Rest
-4.20148757612,3.84483432052,-0.915112624006,-4.511059,3.89959786158,-0.864452861641,-2.485593509,3.77574627757,-1.51905219574,Rest
-4.1930293405,3.81694574537,-0.910307425828,-4.53079488312,3.82630549111,-0.84451086174,-2.5013822155,3.79838400427,-1.51851403625,Rest
-4.1930293405,3.83187445191,-0.913867788832,-4.47384276325,3.86855053046,-0.864704178304,-2.4833379795,3.80513508884,-1.53226629651,Rest
-4.07968898313,3.9411632736,-0.966045031839,-4.36952452387,4.00450504582,-0.916462426047,-2.38747797575,3.85622842988,-1.61518911129,Rest
-4.09265827775,3.91781302632,-0.957278316545,-4.38305770087,3.97508643289,-0.906920853927,-2.3795836225,3.89745446789,-1.63787245426,Rest
-4.08532780688,3.92110744218,-0.959802402045,-4.39997417212,3.96717885045,-0.901636849502,-2.4201831535,3.91105888564,-1.61601772989,Rest
-4.08194451263,3.92991141303,-0.962754736346,-4.4230933495,3.95748639707,-0.894732732132,-2.386350211,3.89061905566,-1.6303638241,Rest
-4.12254404363,3.88376207533,-0.942078977018,-4.45749017437,3.91155473458,-0.877524028447,-2.40777774125,3.88348784231,-1.61289299082,Rest
-4.10619145475,3.9324784898,-0.957694869598,-4.452415233,3.98312651874,-0.894599068213,-2.37620032825,3.88662994353,-1.6356491064,Rest
-4.08081674787,3.94313195914,-0.966260482339,-4.38418546562,4.00239145781,-0.912915634887,-2.34913397425,3.89926370673,-1.65987285079,Rest
-4.02499239275,3.9640632577,-0.984862298084,-4.34809699363,4.02716087562,-0.926189291896,-2.31022609038,3.90944782672,-1.69223602963,Rest
-4.04980321725,3.95088345826,-0.975574181342,-4.35881075875,4.00668882277,-0.919216053308,-2.323195385,3.89067724388,-1.67470944071,Rest
-3.98495674412,4.00291797362,-1.00450725833,-4.23870381288,4.03560617526,-0.952084965927,-2.20929114525,3.94225956914,-1.78440020348,Rest
-3.94210168363,3.97251347274,-1.00771461305,-4.24321487187,4.06984404016,-0.959141632713,-2.18842749737,3.99230788267,-1.82428153889,Rest
-3.94322944837,4.03737854947,-1.02387614069,-4.20599863513,4.09086457869,-0.972626225916,-2.16192502575,4.03867830797,-1.8680936017,Rest
-3.91729085912,4.00866478944,-1.02332579673,-4.23024557725,4.09152973587,-0.967208560628,-2.22733538125,4.01919519151,-1.80448585576,Rest
-4.03006733412,3.98980277106,-0.990008960216,-4.299039227,4.05176478905,-0.94248146507,-2.31135385512,3.97928076485,-1.72162334903,Rest
-3.94435721312,4.05969053378,-1.02924008005,-4.25223698987,4.0986917924,-0.963890724378,-2.22902702837,4.02878196334,-1.80741727761,Rest
-3.99736215637,4.02841763856,-1.00776899389,-4.27366452013,4.06576002917,-0.9513521733,-2.26342385325,4.01114246527,-1.77215701757,Rest
-4.01145921575,4.03182301885,-1.00507640786,-4.3193389925,4.07176179322,-0.942681692798,-2.28428750112,4.00781630349,-1.75451483297,Rest
-3.94604886025,4.06409223621,-1.02991432193,-4.27028122588,4.10081808601,-0.960315695641,-2.22564373412,4.00364233601,-1.79886936738,Rest
-3.98834003837,4.08021448609,-1.02303576095,-4.317083463,4.11081559807,-0.952220551977,-2.2938735015,4.01554001626,-1.75054989459,Rest
-4.136641103,3.99663916181,-0.966155647129,-4.43549876175,4.01684268543,-0.90561240149,-2.40946938837,3.94919283538,-1.63903009286,Rest
-4.542636413,3.60375033323,-0.793316921186,-4.84318571888,3.61273584926,-0.745942042896,-2.918655173,3.51925418673,-1.20577936691,Rest
-4.700523478,3.57741768752,-0.761067933021,-4.95483442912,3.56497260962,-0.719493791492,-2.941210468,3.53215775669,-1.2009197557,Rest
-4.41125181962,3.76043136252,-0.852463544653,-4.70108736038,3.80145689135,-0.808633535167,-2.7179130475,3.73674600846,-1.37485855624,Rest
-4.34358593462,3.89107240223,-0.895820287845,-4.650901829,3.8895826365,-0.836307189338,-2.634458456,3.78439337461,-1.43649764755,Rest
-4.34809699362,3.87607178719,-0.891440966674,-4.64075194625,3.84983191265,-0.829570715531,-2.6322029265,3.79314482277,-1.44105334151,Rest
-4.64582688763,3.61174822203,-0.77741773626,-4.90915995675,3.60698432144,-0.734745731085,-2.93726329137,3.608746713,-1.22860852263,Rest
-4.69319300713,3.61457095699,-0.770173089301,-4.98302854787,3.6260693212,-0.727683834512,-3.03030388325,3.61066367759,-1.19151867822,Rest
-5.05069443287,3.67746217891,-0.728110208959,-5.27004467675,3.56474128536,-0.676415761917,-3.48986801887,3.51939580693,-1.00846100423,Rest
-4.9238208985,3.69203448022,-0.7498311893,-5.21196479212,3.51090895102,-0.673624840353,-3.40303013313,3.58538102176,-1.05358485864,Rest
-4.20938192937,5.21324961207,-1.23848339246,-4.34133040512,5.01891296392,-1.15607716888,-2.76809857888,5.09110529179,-1.83920664193,Fly
-4.443393115,3.94408211438,-0.887628443467,-4.74281465612,3.934376645,-0.829544675528,-2.81602858075,3.86218034868,-1.371498988,Rest
-4.42704052612,3.92790275012,-0.887252494515,-4.76706159825,3.90645907411,-0.819468973412,-2.81997575737,3.83545641327,-1.36010261905,Rest
-4.45410688012,3.91114599604,-0.878098820101,-4.75352842125,3.89633744602,-0.819672693782,-2.805878698,3.86484765922,-1.37741081322,Rest
-4.6531573585,3.68619427218,-0.792192051156,-4.96780372375,3.73771506892,-0.752387831076,-3.00323752925,3.67242716454,-1.22282274671,Rest
-4.36501346488,3.97025087413,-0.909562113857,-4.668946065,3.94877128445,-0.845752173934,-2.7224241065,3.8804521782,-1.42536652131,Rest
-4.08983886588,3.91295166711,-0.956749592206,-4.45072358588,3.97241390068,-0.892532152139,-2.44330233087,3.8848062678,-1.5899818122,Rest
-4.45410688012,4.01558051826,-0.901545613147,-4.73604806763,3.96110246913,-0.83637294482,-2.84760599375,3.95218314205,-1.38789676336,Rest
-4.35148028787,3.86142562066,-0.8873820781,-4.58718312062,3.8951162294,-0.849130310905,-2.72524351837,3.85077049176,-1.41300051382,Rest
-4.47553441037,3.9336424376,-0.878921281106,-4.7298453615,3.89051771454,-0.822546493002,-2.79121775625,3.83406097634,-1.37361585915,Rest
-4.47891770462,3.91240394175,-0.873515478463,-4.7975112465,3.87185536826,-0.807054985246,-2.83125340487,3.83388262861,-1.35412910127,Rest
-4.58041653212,3.88526786267,-0.848234616966,-4.84318571887,3.89469923448,-0.80416062083,-3.00098199975,3.78739924343,-1.26205330247,Rest
-4.80145842313,3.90088981258,-0.812438527801,-5.05576937425,3.86088594477,-0.763659427274,-3.1577413,3.89665814321,-1.23400170344,Rest
-4.78510583425,3.83670324953,-0.801801126752,-5.070430316,3.77688465287,-0.744884441258,-3.17691330075,3.81911350895,-1.20214596604,Rest
-4.70390677225,3.79343903985,-0.806444350095,-5.01968090225,3.7237178234,-0.741823613077,-3.09063929737,3.72088025854,-1.20391928676,Rest
-4.65428512325,3.80937682038,-0.818466578542,-4.9599093705,3.75718613587,-0.757511046112,-3.01846235337,3.76538640406,-1.24745183582,Rest
-4.69150136,3.78453049216,-0.806677905804,-4.92043760425,3.76424341114,-0.765022080128,-2.99590705837,3.72562982539,-1.24357323268,Rest
-4.50542017625,3.86081742479,-0.856927272874,-4.7884891285,3.82423413729,-0.798630639992,-2.8848222305,3.77271207724,-1.30777974371,Rest
-4.41012405488,3.86747675037,-0.876954185924,-4.71574830212,3.88350630524,-0.823518571484,-2.76358751988,3.80485159541,-1.37677984433,Rest
-4.39715476025,3.83913698722,-0.873095716787,-4.686990301,3.84795646396,-0.820986649607,-2.69817716437,3.76554785704,-1.39558955089,Rest
-4.58661923825,3.58017104037,-0.780568618061,-4.9147987805,3.62979034417,-0.738543022061,-2.92260234962,3.60653767104,-1.23401586655,Rest
-4.57477770837,3.77907518612,-0.82606750033,-4.84600513075,3.75207366222,-0.774261182353,-2.92429399675,3.67702694312,-1.25740672696,Rest
-4.51049511763,3.71156781429,-0.822873701778,-4.80596948212,3.73660437186,-0.777492321946,-2.84365881712,3.64811375784,-1.28289432469,Rest
-4.76649771587,3.59384631151,-0.753980495898,-5.0411084325,3.55614823875,-0.705429824881,-3.12729165175,3.5133032458,-1.12343319301,Rest
-4.42478499662,3.79355282282,-0.85734172976,-4.73830359712,3.80720881617,-0.803496174977,-2.7134019885,3.72796178379,-1.37390692555,Rest
-4.438882056,3.8905079072,-0.876461203095,-4.76762548063,3.87940152723,-0.813696785328,-2.79121775625,3.82700533102,-1.37108805734,Rest
-4.94242901687,3.49616235469,-0.707377352866,-5.22098691012,3.45073526576,-0.660935437142,-3.2863064815,3.39855308279,-1.03415585306,Rest
-4.4366265265,3.84746064158,-0.867204083688,-4.58661923825,3.80026115931,-0.828553878556,-2.54705668788,3.7935075615,-1.4893691136,Rest
-5.174184673,3.45454721618,-0.667650544869,-5.42060127087,3.38070085381,-0.623676357082,-3.57219484562,3.36862665379,-0.943013133204,Rest
-4.9147987805,3.41468394535,-0.694775940552,-5.210273145,3.37503645283,-0.647765742582,-3.28912589338,3.34699939791,-1.01759540571,Rest
-4.83980242462,3.63903625956,-0.751897689262,-5.12738243587,3.61125483542,-0.704307681469,-3.21356565512,3.55701717527,-1.10687552613,Rest
-4.6802237125,3.7009314733,-0.790759523612,-4.94919560537,3.697936617,-0.747179322026,-2.97560729287,3.61297312124,-1.21419689013,Rest
-4.79694736412,3.62502743622,-0.755694645168,-5.14824608375,3.56720297922,-0.69289674992,-3.18198824213,3.5692227012,-1.12169575423,Rest
-4.908032192,3.55208230491,-0.723728403961,-5.14147949525,3.55918320597,-0.692248837957,-3.25980400987,3.4817332197,-1.06808053771,Rest
-4.86404936675,3.56763365448,-0.733469869543,-5.11948808262,3.51736966638,-0.687054957374,-3.216385067,3.45725586989,-1.07488867094,Rest
-4.98359243025,3.53473191859,-0.709273875837,-5.25820314688,3.49064665275,-0.663847811743,-3.40923283925,3.46751460238,-1.01709527213,Rest
-4.64921018188,3.56398709167,-0.766579042944,-4.90972383912,3.57527888998,-0.728203664224,-2.93951882088,3.52404519344,-1.1988510393,Rest
-4.71292889025,3.54747163648,-0.752710622013,-5.002764431,3.56416199461,-0.712438501505,-3.05455082537,3.50238373644,-1.14661170714,Rest
-4.632857593,3.67974205577,-0.794270486822,-4.90915995675,3.65421031008,-0.744365704575,-2.95587140975,3.63292203271,-1.22905280004,Rest
-4.63567700487,3.7210391992,-0.802695959033,-4.95878160575,3.70802652904,-0.747769678895,-2.98970435225,3.63803676276,-1.21685502448,Rest
-4.6802237125,3.6586433633,-0.781724034587,-4.98359243025,3.66352760378,-0.735117820138,-3.05567859012,3.61617723123,-1.183428533,Rest
-4.72195100825,3.66269292091,-0.775673638821,-5.05238608,3.6201775464,-0.716528287641,-3.06413682575,3.58226284778,-1.16909363109,Rest
-4.91705431,3.21843194931,-0.654544722592,-5.0907300815,3.24042041141,-0.636533534392,-3.00605694112,3.29645843806,-1.09660545446,Rest
-4.13269392637,3.83420274463,-0.927773218373,-4.45636240962,3.87096403995,-0.868637620583,-2.43202468337,3.79088315759,-1.5587354781,Rest
-3.60490002337,4.11071995617,-1.14031455228,-3.88796897562,4.20933925085,-1.08265762336,-1.8044236,4.15299273484,-2.30156196962,Rest
-3.58234472837,4.07130224747,-1.13649091759,-3.86259426875,4.18896447483,-1.08449507853,-1.75931301,4.14578961708,-2.35648210041,Rest
-3.24006812675,4.29866452178,-1.32672041254,-3.47633484187,4.3797690031,-1.25988122615,-1.46271088075,4.31648344928,-2.9510161619,Rest
-5.18151514387,3.25163733511,-0.627545658909,-5.42116515325,3.17587264021,-0.585828424414,-3.53385084412,3.13846773597,-0.888115507531,Rest
-4.79469183463,3.41180389528,-0.711579390909,-5.056897139,3.44242204975,-0.680738001017,-3.1239083575,3.38764462499,-1.08442509745,Rest
-4.44452087975,3.79226538836,-0.853245038321,-4.59733300337,3.94970164791,-0.859128900389,-2.66039704525,3.75100710018,-1.40994258991,Rest
-4.60184406237,3.84332063381,-0.835169680179,-4.94975948775,3.86007680428,-0.779851387494,-3.08500047362,3.83883728569,-1.24435549314,Rest
-4.38362158325,3.73087880483,-0.851095089751,-4.65428512325,3.79229087722,-0.814795565119,-2.611903161,3.65920022381,-1.40097086234,Rest
-4.29058099138,3.85009202574,-0.897335823163,-4.6396241815,3.86346329072,-0.832710396269,-2.60795598437,3.7036305641,-1.42012771162,Rest
-4.45974570387,4.03362523657,-0.904451846451,-4.56350006087,4.25940006188,-0.933362551783,-3.06131741387,3.96527278242,-1.29528312368,Rest
-4.04303662875,4.52880541881,-1.12014949026,-4.30016699175,4.41437880609,-1.0265598556,-2.46472986112,4.39744670684,-1.78414956389,Rest
-4.58210817925,3.879774805,-0.846722655429,-4.80822501162,3.91189027797,-0.813583030852,-2.78670669725,3.95957850395,-1.420880966,Rest
-3.6787686145,4.11735403837,-1.11922071482,-3.933643448,4.15441287876,-1.05612339646,-1.90253913325,4.05916217793,-2.13354990023,Rest
-3.90150215262,4.37016185586,-1.12012288726,-4.33907487562,4.10218343263,-0.945405080626,-2.3660504455,3.96393443599,-1.67533809075,Rest
-4.28832546187,3.85533332377,-0.899030019537,-4.61594112175,3.89329661043,-0.843445899274,-2.5961144545,3.8229588234,-1.47256944576,Rest
-4.36050240587,4.00245723636,-0.917889009983,-4.73040924388,3.9515209216,-0.835344410575,-2.76020422563,3.89303570868,-1.41041582088,Rest
-4.39433534837,3.82370758965,-0.870144694594,-4.69093747762,3.84504106206,-0.819674335971,-2.67111081038,3.77031132031,-1.41151438034,Rest
-4.4276044085,3.80948249016,-0.860393598589,-4.6937568895,3.82729129585,-0.81540041079,-2.75794869612,3.73936244807,-1.3558491691,Rest
-4.42083782,3.77609927798,-0.854159196,-4.72871759675,3.81330783234,-0.806414795199,-2.72129634175,3.68383816131,-1.35370709349,Rest
-4.18964604625,3.87737182316,-0.925465249418,-4.50316464675,3.87929944227,-0.861460716315,-2.44161068375,3.80863621501,-1.55988677489,Rest
-3.7374123815,4.20180749587,-1.12425578635,-4.032886746,4.27286296417,-1.05950482453,-2.00234631362,4.18032893298,-2.08771524912,Rest
-3.65001061337,4.23347591902,-1.15985304358,-3.99848992112,4.27567725281,-1.06932300372,-1.96964113587,4.214492896,-2.13972627766,Rest
-3.66410767275,4.30362756793,-1.17453632707,-3.992287215,4.29271471374,-1.07525197526,-1.96738560637,4.20183560829,-2.13574583176,Rest
-3.62407202413,4.3038564133,-1.18757474593,-3.99397886213,4.32857028406,-1.08377395912,-1.953288547,4.25629174206,-2.1790389078,Rest
-3.6832796735,4.28635238355,-1.16373253283,-4.00976756862,4.31531923926,-1.07620184098,-1.94934137037,4.23682736529,-2.17346608946,Rest
-3.74248732287,4.27510430179,-1.1423163081,-3.9945427445,4.30372760385,-1.07740181521,-2.002910196,4.23611679343,-2.11498089225,Rest
-3.93082403613,4.08776372186,-1.03992539078,-4.24208710713,4.13875339314,-0.975640831654,-2.18617196788,4.04344599292,-1.84955531968,Rest
-3.78985344237,4.23275062448,-1.11686393388,-4.12705510262,4.22300688968,-1.02324945625,-2.09595078787,4.15386664164,-1.9818531359,Rest
-3.81240873738,4.17741931726,-1.09574277183,-4.12592733787,4.20974924891,-1.02031589608,-2.10610067062,4.14354240563,-1.96739997447,Rest
-3.929132389,4.03610980562,-1.02722672744,-4.2336288715,4.06438717988,-0.960024438429,-2.22226043987,4.00557205857,-1.80247642747,Rest
-3.76278708838,4.1194203355,-1.0947790132,-4.073486277,4.21492264777,-1.03472120959,-2.02659325575,4.10348188107,-2.02481769316,Rest
-3.18593541875,4.40620083633,-1.38301636951,-3.60715555287,4.47693739581,-1.24112679095,-1.50331041175,4.37405430137,-2.90961485212,Rest
-3.82481414962,4.11053121834,-1.07470090246,-4.118596867,4.18591517214,-1.01634496099,-2.07170384575,4.0991000199,-1.97861293172,Rest
-3.84060285612,4.21366774632,-1.09713706524,-4.11803298462,4.24256311617,-1.03024019769,-2.11963384762,4.12533351166,-1.94624817691,Rest
-3.82650579675,4.14068023681,-1.08210478613,-4.17836839875,4.20562437264,-1.00652311412,-2.19124690925,4.1589222455,-1.8979706157,Rest
-3.92969627137,4.07162275184,-1.0361163995,-4.23870381287,4.10622347404,-0.968745082297,-2.2713182065,4.01771854714,-1.7688928551,Rest
-3.8998105055,4.09217267925,-1.04932603096,-4.19866816425,4.11451658045,-0.979957553085,-2.1991412625,4.04334097222,-1.83859993042,Rest
-3.91447144725,4.0614438253,-1.03754590627,-4.22517063588,4.11064105862,-0.972893502506,-2.16418055525,4.01378414068,-1.85464384242,Rest
-3.79774779562,4.18219111951,-1.10122929288,-4.08532780688,4.24747164098,-1.03968930812,-2.0457652565,4.15459472499,-2.03082670985,Rest
-3.75376497037,4.19844229473,-1.11846168523,-4.06841133562,4.22559076116,-1.03863410373,-2.03110431475,4.15763579621,-2.04698289793,Rest
-3.762223206,4.16482224312,-1.10701093877,-4.04811157013,4.20976616765,-1.03993333551,-2.00685737263,4.1496946075,-2.06775761153,Rest
-3.644935672,4.27287070328,-1.17227602564,-3.98213733225,4.30101428462,-1.08007683457,-1.94708584088,4.22671239565,-2.17078893335,Rest
-3.49212354837,4.34048768575,-1.24293646133,-3.84680556225,4.38031131435,-1.1386879954,-1.75198253912,4.30777610998,-2.45880082351,Rest
-3.6246359065,4.25992798982,-1.17527059261,-3.92405744762,4.34162914484,-1.10641324771,-1.89408089762,4.24154852517,-2.2393703091,Rest
-3.66805484937,4.27173614153,-1.16457804394,-3.99115945025,4.28995233023,-1.07486367901,-1.91663619262,4.23508470397,-2.20964454301,Rest
-3.60151672912,4.28722224593,-1.19039353927,-3.9404100365,4.37726804344,-1.11086612888,-1.89971972137,4.27613680757,-2.25093036591,Rest
-4.00469262725,4.13136094398,-1.03162997226,-4.28494216762,4.09644610502,-0.956009660055,-2.26173220613,4.03728435752,-1.7850408402,Rest
-3.83609179713,4.14988738726,-1.08180085533,-4.19697651712,4.16089377641,-0.991402682248,-2.15008349587,4.08618719931,-1.90047838009,Rest
-3.80676991362,4.17306328096,-1.09622156727,-4.16765463363,4.16123641647,-0.998459993036,-2.129219848,4.08819870672,-1.92004536805,Rest
-3.77519250062,4.19654792039,-1.11161163827,-4.11577745513,4.22302345413,-1.02605728812,-2.14444467213,4.11187539967,-1.91745464601,Rest
-3.74925391137,4.20874639012,-1.12255571098,-4.02724792225,4.21994123432,-1.04784739251,-2.02151831438,4.18613662851,-2.07078837661,Rest
-3.71090990987,4.23532644948,-1.14131750766,-4.01653415712,4.26903094101,-1.06286434374,-1.98091878338,4.21020995811,-2.12538242024,Rest
-3.77519250062,4.20735365473,-1.11447393849,-4.12367180837,4.23312440405,-1.0265425089,-2.07113996337,4.15739393079,-2.00729743248,Rest
-3.76842591212,4.21378365127,-1.11818137056,-4.07292239462,4.25344332216,-1.04432221144,-2.02208219675,4.16049077145,-2.05752801648,Rest
-3.77913967725,4.18090532757,-1.10631140541,-4.073486277,4.24745850313,-1.04270843555,-2.07226772812,4.18340586941,-2.01875742822,Rest
-3.753201088,4.22170656566,-1.12482823773,-4.03401451075,4.25853452156,-1.05565671869,-2.04294584462,4.19518145239,-2.05349616263,Rest
-3.70978214512,4.30382272448,-1.16012815743,-3.99848992113,4.36348486547,-1.09128319729,-2.03335984425,4.19956500949,-2.0653329126,Rest
-3.5930584935,4.33823468648,-1.20739328189,-3.91616309437,4.36372882449,-1.11428679535,-1.91099736887,4.25585002992,-2.22703081607,Rest
-3.8186114435,4.04641677984,-1.05965658976,-3.95563486062,4.26058623122,-1.07709290199,-1.90479466275,4.14704707889,-2.1771622737,Rest
-3.93871838937,4.07600981345,-1.03485687742,-4.26858957875,4.10051835748,-0.960626052664,-2.21154667475,4.04847424045,-1.83060764065,Rest
-3.915599212,4.08467549583,-1.04318018129,-4.19584875237,4.12749415096,-0.983708992994,-2.05873455113,4.24371143398,-2.06132035413,Rest
-3.87669132812,4.06093722958,-1.04752658539,-4.15073816237,4.16631616125,-1.00375306711,-2.11230337675,4.06208448581,-1.92305922081,Rest
-3.91898250625,4.07058012208,-1.0386829019,-4.18287945775,4.13988584361,-0.989721526863,-2.16361667287,4.03899900007,-1.86678123288,Rest
-3.79267285425,4.11465877029,-1.08489683355,-4.10449980762,4.21233189272,-1.02627167503,-2.04971243312,4.10301271388,-2.00175041512,Rest
-3.74587061713,4.17115158708,-1.11353327796,-4.03796168737,4.19767155843,-1.03955210163,-2.002910196,4.12330657562,-2.05865773905,Rest
-3.67933249687,4.19050487327,-1.13893073725,-3.99341497975,4.22352325592,-1.05762192944,-1.944266429,4.15090419832,-2.1349461866,Rest
-3.7509455585,4.13419607022,-1.1021743733,-4.05149486437,4.19923227378,-1.03646491341,-2.011932314,4.12611564116,-2.0508222928,Rest
-3.73628461675,4.16295091226,-1.1141953409,-4.07630568888,4.22862754475,-1.03736762341,-2.00798513737,4.1268901489,-2.05523939002,Rest
-3.90996038825,4.05741342527,-1.03771215623,-4.19923204663,4.12559679416,-0.982464590751,-2.09707855262,4.07801195544,-1.94461573713,Rest
-4.08983886587,3.90011114693,-0.953609977026,-4.37008840625,3.95588865984,-0.905219366771,-2.36999762212,3.91807089856,-1.65319613066,Rest
-4.01427862762,3.98197903162,-0.99195382309,-4.28550605,4.02852975718,-0.940035951455,-2.28654303062,3.94373282218,-1.72475775411,Rest
-4.04585604062,3.90819120755,-0.965973867657,-4.335127699,3.9852602173,-0.919294769154,-2.30402338425,3.8458879661,-1.66920526605,Rest
-4.03683392263,3.94808030417,-0.978014052558,-4.31313628638,4.02016889281,-0.932075553817,-2.31135385513,3.92242671975,-1.69702562464,Rest
-4.01089533337,3.97003271262,-0.989812094966,-4.27479228487,4.08752413958,-0.95619245736,-2.22056879275,4.01087737757,-1.80623873967,Rest
-3.95337933113,3.97237740097,-1.00480552668,-4.23983157762,4.0727721117,-0.960597617412,-2.18729973263,3.98544942255,-1.8220865495,Rest
-3.951687684,3.99923635347,-1.01203249681,-4.29791146225,4.02441061495,-0.936364243493,-2.32601479687,3.90774045722,-1.68001530449,Rest
-3.92292968287,3.97897200102,-1.01428583295,-4.21671240025,4.02759814256,-0.955151255353,-2.1675638495,3.97161791484,-1.8322956972,Rest
-3.92969627137,3.99630401104,-1.01694984423,-4.21727628262,4.03079746686,-0.955782167621,-2.18278867363,3.98505688046,-1.82567232853,Rest
-3.92969627137,3.96382754929,-1.00868547479,-4.19697651712,4.03872188454,-0.962293181308,-2.16812773187,3.98538783111,-1.83817022056,Rest
-3.98495674413,3.91406963404,-0.982211322571,-4.27253675537,4.01448416735,-0.939602020345,-2.23184644025,3.96780576235,-1.77781306581,Rest
-3.95958203725,3.9409462854,-0.995293505304,-4.25336475462,3.98132867539,-0.936042146648,-2.26737102988,3.9347968694,-1.73540052226,Rest
-4.05036709962,3.88902896271,-0.960167033519,-4.30411416837,3.94621593446,-0.91684741159,-2.291617972,3.89227805935,-1.69848469811,Rest
-4.01427862762,3.93601041944,-0.98050254717,-4.294528168,3.96501878196,-0.923272272728,-2.26737102988,3.91318763672,-1.72586999885,Rest
-3.974242979,4.01811106371,-1.01103809831,-4.262950755,4.09054437713,-0.959557032727,-2.2397407935,4.00424209943,-1.78781496102,Rest
-3.8321446205,4.11617077886,-1.07411676398,-4.14622710337,4.20768676837,-1.01482303392,-2.11681443575,4.12268144476,-1.94758755191,Rest
-3.92574909475,4.08963310933,-1.04174592176,-4.26351463737,4.1525868957,-0.973982089636,-2.23184644025,4.02788549626,-1.80473236134,Rest
-3.861466504,4.1437127968,-1.0730930315,-4.19866816425,4.14390109757,-0.986956085945,-2.19744961538,4.10866193653,-1.86974113435,Rest
-3.85582768025,4.15135075802,-1.07664322741,-4.18513498725,4.18836994471,-1.00077296371,-2.1675638495,4.12049436039,-1.90097946196,Rest
-3.79436450138,4.17009979715,-1.09902456541,-4.12705510262,4.24948727706,-1.02966574746,-2.08241761087,4.17709627366,-2.00588789292,Rest
-5.00445607813,3.37537629952,-0.674474157995,-5.28865279513,3.32663452551,-0.62901359843,-3.27841212825,3.40411096184,-1.03834137646,Rest
-3.95789039013,4.08423079357,-1.03192114763,-4.2652062845,4.09163495735,-0.959305291335,-2.2397407935,4.04234119266,-1.80482545319,Rest
-3.73854014625,4.20762589851,-1.12547297445,-4.0351422755,4.25192677222,-1.05372412716,-1.99445196037,4.18225559069,-2.09694476166,Rest
-3.73402908725,4.13055736857,-1.10619314206,-4.04923933487,4.19207614506,-1.03527497349,-2.01982666725,4.07755802676,-2.01876630944,Rest
-3.64888284863,4.24080481735,-1.1622200529,-3.98664839125,4.25000880525,-1.06606060735,-1.93129713437,4.17219213763,-2.16030566367,Rest
-3.847933327,4.16100813299,-1.0813618063,-4.17836839875,4.1553830925,-0.994498975663,-2.1359864365,4.09569068303,-1.91747036078,Rest
-3.775756383,4.17370116838,-1.10539471963,-4.09491380725,4.22466741633,-1.03168652997,-2.07677878712,4.11079266433,-1.97940805723,Rest
-3.67989637925,4.2319424462,-1.15001674234,-3.98382897938,4.28265508435,-1.07500977239,-1.95498019413,4.18968896332,-2.14308511969,Rest
-3.83158073812,4.19342967333,-1.09443855159,-4.14227992675,4.24333547729,-1.02439611816,-2.160797261,4.13443294796,-1.91338309363,Rest
-3.897554976,4.1839135957,-1.07347134844,-4.20599863512,4.21909736748,-1.00311429781,-2.18504420312,4.11117876953,-1.8815082842,Rest
-3.39513577987,4.31726549094,-1.27160319082,-3.7464344995,4.40959997578,-1.17701243045,-1.60029818025,4.31221893082,-2.69463465249,Rest
-3.311117306,4.40889730851,-1.33154367576,-3.63534967162,4.49887081646,-1.23753454903,-1.56195417875,4.36050718206,-2.79169980873,Rest
-3.59362237587,4.33019190855,-1.20496575756,-3.91277980013,4.40275368307,-1.12522398601,-1.88956983862,4.32314311847,-2.28789803378,Rest
-3.85300826837,4.13274278204,-1.07260158665,-4.19415710525,4.18356323657,-0.997474136419,-2.1630527905,4.09541926686,-1.89335150989,Rest
-4.303550286,3.85981402776,-0.896890653356,-4.6260910045,3.83239884038,-0.828431355252,-2.68295234025,3.77441128057,-1.40681264589,Rest
-4.59564135625,4.02706379963,-0.876278953786,-4.88378524987,3.90708230092,-0.800011077681,-2.99703482312,3.91513465548,-1.30633605765,Rest
-4.36388570012,4.30003844151,-0.985369172566,-4.60128018,4.24630910199,-0.922853844121,-2.75682093137,4.22628538504,-1.53302861892,Rest
-4.82570536525,3.43419439944,-0.711646099277,-5.0726858455,3.43307520504,-0.676776624771,-3.14477200537,3.38977977669,-1.07790954985,Rest
-3.730645793,4.17105831968,-1.11805262443,-4.04923933487,4.2331247045,-1.04541232425,-1.95159689987,4.14029146858,-2.12148905793,Rest
-3.97706239087,3.86386551141,-0.971537565083,-4.25449251937,3.94632164645,-0.927565773938,-2.178841497,3.9049098342,-1.79219545781,Rest
-4.09322216012,3.99564038926,-0.976160157682,-4.42591276137,3.90442022638,-0.882172884304,-2.50927656875,3.93375838909,-1.5676862559,Rest
-3.88289403425,3.93336004163,-1.01299700866,-4.20769028225,4.01912620596,-0.95518584695,-2.142753025,3.93477751582,-1.83631873105,Rest
-4.51275064713,3.5655255507,-0.790100280185,-4.77100877487,3.62798252279,-0.760422521522,-2.733701754,3.63063609448,-1.32810248564,Rest
-5.083963493,4.95443830951,-0.974522794337,-4.67176547687,4.74300149589,-1.015248201,-3.401338486,4.80440808212,-1.4125051364,Fly
-4.26915346112,4.72305935079,-1.10632222379,-4.9102877215,4.72939466437,-0.963160395603,-3.22822659687,4.95489365984,-1.53486550933,Fly
-4.95427054675,5.02268374506,-1.01380893467,-4.5494030015,4.4450964575,-0.97707247655,-2.79121775625,4.46792939066,-1.60070971914,Fly
-4.66950994737,4.52520573696,-0.969096497911,-5.0501305505,4.72902514673,-0.936416415267,-3.60151672912,4.84893044565,-1.34635788484,Fly
-4.86574101387,4.81254625621,-0.989067490951,-4.88660466175,4.64511926025,-0.950582169376,-2.50702103925,4.37315863134,-1.74436455174,Fly
-5.102007729,4.89114627458,-0.958670886909,-4.0125869805,3.89167023229,-0.969865638104,-2.34575068,4.7457219728,-2.02311439714,Fly
-4.88209360275,4.66229446126,-0.954978507301,-4.94524842875,4.6466911782,-0.939627451513,-3.32295883588,4.73580200469,-1.42517624761,Fly
-4.09491380725,8.92141035492,-2.17865644428,-4.29396428562,9.59222055016,-2.23388456729,-4.31821122775,7.18687578111,-1.66431779319,Feed
-4.502036882,4.09799916713,-0.910254463599,-4.86799654337,3.96813250267,-0.815146943371,-3.40077460362,3.33827695646,-0.981622525911,Rest
-4.59620523862,4.77827014071,-1.03961200439,-4.47891770463,4.92992886012,-1.10069645956,-4.21896792975,6.28222252372,-1.48904249293,Fly
-5.18038737912,5.49654395467,-1.06102952393,-5.37097962187,5.46263491841,-1.01706491236,-3.56260884525,5.30112043741,-1.48798834441,Fly
-4.57703323787,4.95914051152,-1.08348361347,-4.12423569075,4.30976903873,-1.04498611667,-2.88707776,4.77350727054,-1.65340446893,Fly
-4.208818047,4.4415373541,-1.05529326868,-4.47553441037,4.47950057469,-1.00088618787,-3.75602049987,5.00246236474,-1.33185172043,Fly
-4.7253343025,4.87089938145,-1.03080524459,-4.53417817737,4.61064240115,-1.01686396537,-1.63356724037,3.99662034638,-2.44656004822,Fly
-4.99656172487,5.16925828146,-1.03456307879,-4.68191535963,4.69631327528,-1.00307521912,-2.715657518,4.61107908812,-1.69796045987,Fly
-4.7930001875,4.81767848726,-1.00514882095,-4.40222970162,4.40487901436,-1.00060181156,-2.71734916512,4.38177747988,-1.61251911831,Fly
-4.44508476212,4.7208167439,-1.06203075904,-4.56688335512,4.75414574206,-1.04100441644,-2.85493646462,4.74468439801,-1.66192293832,Fly
-4.42647664375,4.94433918932,-1.11699204294,-4.79694736412,5.02842565557,-1.04825533279,-3.41994660438,5.41679318462,-1.58388238509,Fly
-4.43493487937,4.27342695231,-0.963582796263,-4.60522735662,4.23413380451,-0.919419059392,-2.580325748,4.33257744948,-1.67908158605,Rest
-4.18795439912,4.5325828831,-1.08229040986,-4.547147472,4.35395428801,-0.957513323424,-2.68238845787,4.37315815874,-1.63032246351,Rest
-4.48230099887,4.993560939,-1.11406193833,-5.12399914163,5.29732096683,-1.03382549849,-3.39175248562,5.24438423178,-1.54621666941,Fly
-4.67740430062,4.94064633814,-1.05627951329,-5.1809512615,5.04054123836,-0.972898794826,-3.52708425562,5.27183807384,-1.49467313275,Fly
-4.73999524425,5.11813527559,-1.07977645796,-4.48455652838,4.86497606289,-1.08482879681,-2.83181728725,5.01739723559,-1.77179412605,Fly
-4.222351224,4.67323504922,-1.10678501179,-4.7524006565,4.83742513207,-1.01789084753,-3.74530673475,5.59582720574,-1.49409049833,Fly
-4.87589089663,5.20800464179,-1.06811344885,-4.77382818675,5.24267872515,-1.09821269641,-2.97335176338,5.05339766301,-1.6995626704,Fly
-4.98810348925,5.58877826293,-1.12042147381,-5.14599055425,5.53185232947,-1.07498299329,-2.98350164612,5.26301356918,-1.76403910352,Fly
-5.40255703487,5.61406228481,-1.0391491008,-5.1268185535,5.4080693055,-1.05485872946,-3.68215190875,6.00033962469,-1.6295741657,Fly
-4.64977406425,4.07207273519,-0.875757118287,-4.97457031225,3.98058447653,-0.800186594354,-3.12785553412,3.95988504618,-1.26600637497,Rest
-4.70447065463,4.05496872696,-0.861939424145,-5.05125831525,3.94421738878,-0.780838583699,-3.24852636238,3.87382344833,-1.19248638189,Rest
-4.700523478,3.94463608119,-0.83919080495,-5.00445607812,3.90370253969,-0.780045319362,-3.13123882837,3.86553895837,-1.23450786422,Rest
-4.59394970912,3.98806187434,-0.868111783292,-4.85333560162,4.00375193206,-0.824948501547,-2.75569316662,4.362735415,-1.58317169264,Rest
-4.63398535775,3.77670196338,-0.815000840921,-4.96949537087,3.77277473874,-0.759186689427,-3.017898471,3.70985992562,-1.22928586275,Rest
-4.61143006275,3.807795263,-0.825729808581,-4.87701866137,3.83980128293,-0.787325526011,-2.93387999712,3.76591836208,-1.28359659078,Rest
-4.529103236,3.82068056106,-0.843584339321,-4.835855248,3.86370557455,-0.798970477073,-2.87636399487,3.76872248082,-1.31023837301,Rest
-5.00107278388,3.67594219626,-0.735030733428,-5.10708267037,3.74311181489,-0.732925636118,-3.1690189475,3.72441128565,-1.17525686888,Rest
-4.524592177,3.9049912599,-0.863059278525,-4.83754689512,3.84806152878,-0.795457204282,-2.918655173,3.82758371889,-1.31142032615,Rest
-4.43267934987,3.88046786963,-0.875422642458,-4.72251489062,3.93543584771,-0.833334767356,-2.774301285,3.82362148089,-1.37822863781,Rest
-4.58267206162,3.87822831033,-0.846281003349,-4.88604077937,3.81790823275,-0.781390988153,-2.95530752737,3.77129822976,-1.27611025074,Rest
-4.71574830212,3.87342254898,-0.821380256287,-4.99487007775,3.80203251723,-0.761187469953,-3.10755576862,3.83089082256,-1.23276655603,Rest
-4.73266477337,3.76440335053,-0.795408830076,-5.05858878613,3.72183209205,-0.735745135533,-3.14477200537,3.68476448604,-1.17171117008,Rest
-4.86010219012,3.73690593351,-0.768894518536,-5.16910973162,3.68188813533,-0.712286704383,-3.28687036387,3.66555809414,-1.11521225006,Rest
-4.98979513637,3.6366749516,-0.728822497158,-5.18207902625,3.60606107423,-0.695871494039,-3.23837647962,3.56983020754,-1.10235182043,Rest
-4.85108007212,3.66458088512,-0.755415460193,-5.1674180845,3.59676270366,-0.696046390063,-3.252473539,3.55111326637,-1.09181926426,Rest
-4.92212925137,3.70011171611,-0.751729897193,-5.18038737912,3.67103757562,-0.708641517894,-3.30265907037,3.63467884598,-1.10053104742,Rest
-4.77213653962,3.75733537447,-0.787348673549,-5.05182219762,3.74680888885,-0.741674734833,-3.18537153637,3.66800864627,-1.15151673969,Rest
-4.77213653962,3.80565677019,-0.79747440975,-5.03490572637,3.7440413513,-0.743616972148,-3.14759141725,3.72023233419,-1.18192987622,Rest
-4.66387112362,3.78941873889,-0.812505028214,-4.97738972412,3.72898236973,-0.749184326808,-3.058498002,3.74734284768,-1.22522324528,Rest
-4.69093747762,3.84850604972,-0.820412991662,-5.016297608,3.80838591928,-0.759202546756,-3.11206682763,3.76232694642,-1.20894799335,Rest
-4.72928147913,3.67961274222,-0.778049003525,-5.02644749075,3.70528837756,-0.737158477111,-3.06808400237,3.635674587,-1.18499838472,Rest
-5.00840325475,3.32166810503,-0.663218981394,-5.05294996238,3.54787150253,-0.702138657408,-2.9885765875,3.63044622071,-1.21477436312,Rest
-4.83529136562,3.61709402849,-0.748061234574,-5.1493738485,3.59234126831,-0.697626813279,-3.19439365437,3.58661705356,-1.12278492936,Rest
-4.6666905355,3.73253265129,-0.799824334374,-4.921565369,3.70939364677,-0.753701996956,-3.00944023537,3.62304632723,-1.20389376225,Rest
-4.74958124463,3.68004304968,-0.774814212063,-5.02362807887,3.66048529395,-0.72865372127,-3.09740588587,3.6034982919,-1.16339234336,Rest
-4.55504182525,3.78626738856,-0.831225603149,-4.87589089663,3.75026425178,-0.769144415101,-2.90399423125,3.7048256429,-1.27576894025,Rest
-4.43606264413,3.85523501395,-0.86906685573,-4.74845347987,3.89002662225,-0.819219697263,-2.77599293212,3.78091735646,-1.36200539731,Rest
-4.54996688387,3.94139497266,-0.866246958111,-4.85051618975,3.89528361074,-0.803065788952,-2.9344438795,3.83522531965,-1.30696836509,Rest
-4.36557734725,3.84740692365,-0.881305407652,-4.68868194812,3.85240604808,-0.82163944808,-2.747234931,3.69030820295,-1.34328089721,Rest
-4.40561299587,3.94804132446,-0.896138931894,-4.73097312625,3.87296073276,-0.818639343198,-2.77542904975,3.86544045569,-1.39273618111,Rest
-4.4501597035,3.88197595862,-0.87232284171,-4.714056655,3.89225257173,-0.8256694513,-2.8171563455,3.85376142707,-1.36796150247,Rest
-4.32554169862,4.10631050949,-0.949317055663,-4.63398535775,4.05661213198,-0.875404607223,-2.70043269387,4.02096447995,-1.48900747983,Rest
-4.50767570575,3.86775811985,-0.858038237958,-4.8245776005,3.83300611204,-0.794474963288,-2.85944752362,3.76749555589,-1.3175606563,Rest
-4.21614851787,4.1288956499,-0.979305077228,-4.55278629575,4.06394389571,-0.892627861646,-2.62148916137,4.04051996275,-1.54130714034,Rest
-4.33343605187,3.82873786568,-0.883533948545,-4.67458488875,3.85286347835,-0.824215105736,-2.7224241065,3.76131168857,-1.38160387266,Rest
-4.3328721695,4.00406295409,-0.924112874197,-4.66838218262,3.93416489955,-0.842725540808,-2.69930492912,3.89654516778,-1.44353649183,Rest
-4.37234393575,3.90042472691,-0.892067226235,-4.62439935738,3.89674786026,-0.842649511669,-2.67618575175,3.82350688795,-1.4287150604,Rest
-4.27930334387,3.93301222254,-0.919077687766,-4.6125578275,3.92848234912,-0.851692812542,-2.63107516175,3.82780219085,-1.4548433456,Rest
-4.27986722625,3.97101886903,-0.927836930238,-4.610302298,3.94687952836,-0.856099941662,-2.6457361035,3.87017315047,-1.46279636331,Rest
-4.26407851975,3.95429108113,-0.927349499504,-4.565191708,3.98686069888,-0.87331725673,-2.56115374725,3.87399240627,-1.51259658286,Rest
-4.27253675537,4.0195183873,-0.940780294574,-4.55955288425,4.01873568742,-0.88138810744,-2.6412250445,3.94290427328,-1.49283162428,Rest
-4.19190157575,3.87258240551,-0.923824745292,-4.488503705,3.92453383004,-0.874352365057,-2.50250998025,3.83056366472,-1.53068866656,Rest
-4.4591818215,3.83316007164,-0.859610624792,-4.71800383162,3.84329879265,-0.814602728148,-2.76922634362,3.76218496288,-1.35856896333,Rest
-4.72928147912,3.62697415008,-0.766918646329,-5.025319726,3.60607324231,-0.71758085832,-3.11432235712,3.57200818545,-1.14696161021,Rest
-4.80484171737,3.58867604239,-0.746887463412,-5.07776078687,3.52415274215,-0.694036779216,-3.1690189475,3.49446966003,-1.10269762281,Rest
-4.456926292,3.84122633805,-0.861855477608,-4.77326430437,3.87626603496,-0.812078650539,-2.85437258225,3.75558175328,-1.31572933983,Rest
-4.5268477065,3.84086342866,-0.848463142056,-4.78566971662,3.84905592875,-0.804287833607,-2.87298070062,3.77604096614,-1.31432869191,Rest
-4.39997417212,4.00159917044,-0.909459695421,-4.71462053737,3.93185597286,-0.833970823673,-2.79742046237,3.89466167989,-1.39223321352,Rest
-4.41519899625,3.94344921365,-0.893153222992,-4.71292889025,3.89546645267,-0.82654895573,-2.79629269762,3.86691600565,-1.38287240421,Rest
-4.47102335137,3.89121818106,-0.870319359854,-4.79412795225,3.86063360075,-0.805283805355,-2.78275952062,3.80078702324,-1.36583380456,Rest
-4.37741887712,3.98780354471,-0.910994276912,-4.700523478,3.96263796452,-0.843020566341,-2.73708504825,3.92464579723,-1.4338779132,Rest
-4.44282923262,3.80056549243,-0.855438121393,-4.7749559515,3.78292778847,-0.792243494367,-2.76189587275,3.70919391749,-1.342988327,Rest
-4.3464053465,3.9908093785,-0.918186193038,-4.67176547687,3.93709502618,-0.842742437665,-2.73708504825,3.90755611465,-1.42763416035,Rest
-4.434370997,3.964784614,-0.89410304566,-4.74732571512,3.92068185779,-0.825871678721,-2.81884799262,3.84707480625,-1.3647684502,Rest
-4.26351463737,3.89345320842,-0.913202730511,-4.54545582487,3.92098353442,-0.862616134769,-2.54987609975,3.87192352867,-1.51847516397,Rest
-4.520081118,3.86736432017,-0.855596220335,-4.81611936488,3.86438095106,-0.80238479537,-2.90399423125,3.77591655049,-1.30024932896,Rest
-4.32272228675,4.11104995581,-0.95103263247,-4.62101606312,4.04636959288,-0.875644996167,-2.64911939775,3.9884654809,-1.50558162244,Rest
-4.93340689887,3.50940018633,-0.711354294966,-5.18377067337,3.48917323278,-0.673095600216,-3.21300177275,3.3966205515,-1.05714867023,Rest
-4.908032192,3.43587111935,-0.700050648598,-5.19166502663,3.40949560428,-0.65672488244,-3.27108165737,3.35549525211,-1.0258060188,Rest
-4.87758254375,3.41755426484,-0.70066559288,-5.1674180845,3.42935737211,-0.663650069731,-3.26205953937,3.32623956103,-1.01967469351,Rest
-4.83190807137,3.48974401539,-0.722228975354,-5.05182219762,3.49156217032,-0.691149061415,-3.12108894562,3.46403618286,-1.10988063564,Rest
-4.741123009,3.5226005918,-0.742988651657,-5.03095854975,3.49580132436,-0.694857906261,-3.05455082538,3.44136775941,-1.1266362736,Rest
-4.73379253812,3.53743395905,-0.747272705883,-5.020808667,3.54145354838,-0.705355209343,-3.20567130188,3.41617492674,-1.06566600411,Rest
-4.74676183275,3.57125169794,-0.752355357984,-5.0456194915,3.53030430751,-0.699677078991,-3.11770565138,3.49558497935,-1.121204299,Rest
-4.61424947462,3.90105837258,-0.845437246952,-4.81442771775,3.99968076738,-0.830769720072,-3.0381982365,4.04521277063,-1.33145122725,Rest
-4.705034537,3.56980495622,-0.758720244909,-4.9869757245,3.54911634209,-0.7116770841,-3.06357294337,3.51928341471,-1.14875130436,Rest
-4.73717583237,3.57173080304,-0.753978937964,-5.05069443287,3.51522440902,-0.695988335018,-3.0787977675,3.52639251912,-1.14537971813,Rest
-4.82119430625,3.47314833782,-0.720391694921,-5.08001631637,3.49001005713,-0.687007647175,-3.11883341612,3.46749053163,-1.11179087466,Rest
-4.76424218638,3.57400548614,-0.750172922855,-5.03546960875,3.56579793184,-0.708136124115,-3.04158153075,3.503685939,-1.15192898944,Rest
-4.64244359337,3.67893693697,-0.792457003079,-4.9373540755,3.65296842537,-0.739863572576,-2.98350164612,3.64002207341,-1.22005029833,Rest
-4.668946065,3.70229210739,-0.792960992876,-4.96498431187,3.70488207182,-0.746202170863,-3.04665647212,3.60792156529,-1.18422329472,Rest
-4.42365723187,3.92417469516,-0.887088327478,-4.77326430438,3.87843753487,-0.812533580283,-2.80475093325,3.81286087567,-1.35942939905,Rest
-4.69657630137,3.6352092887,-0.774012611621,-4.9959978425,3.61461181747,-0.723501476867,-3.06357294337,3.56558084009,-1.16386353646,Rest
-4.26577016687,3.9274953891,-0.92070018671,-4.53474205975,3.97771100659,-0.877163674179,-2.58427292463,3.87964150441,-1.50125068736,Rest
-4.18569886962,4.00524468102,-0.956887919024,-4.51444229425,4.02121296981,-0.89074412911,-2.53577904038,3.92715761657,-1.54869866579,Rest
-4.23475663625,4.09121203451,-0.966103222908,-4.52741158887,4.0521797058,-0.895032321725,-2.53014021662,4.01838228133,-1.58820537096,Rest
-4.34245816987,4.01433874611,-0.924439243644,-4.65597677038,4.00420934407,-0.860014888722,-2.70156045862,3.94828325014,-1.46148246934,Rest
-4.36050240587,3.97732229754,-0.912124779975,-4.67627653588,3.95167348231,-0.84504700524,-2.7314462245,3.84289144066,-1.40690722965,Rest
-4.38644099512,3.99109870377,-0.909871740713,-4.68135147725,3.8768508933,-0.82814779282,-2.783323403,3.8914774071,-1.39814058363,Rest
-4.49019535212,3.87922022315,-0.863931281145,-4.79243630512,3.85268930224,-0.803910382308,-2.81546469838,3.80611793927,-1.3518613611,Rest
-4.58210817925,3.76565547444,-0.821817235022,-4.81837489437,3.76282452261,-0.78093228632,-2.89779152512,3.71403937562,-1.28167928694,Rest
-4.25505640175,3.92392629963,-0.922179620937,-4.56462782563,3.90635859161,-0.85578906777,-2.57130363,3.86198423979,-1.50195573744,Rest
-4.34302205225,3.84776392719,-0.885964630365,-4.65936006462,3.8336666596,-0.82278823839,-2.67900516362,3.7586370152,-1.40299730147,Rest
-4.64921018188,3.95659089347,-0.851024311375,-4.89562677975,3.8708163894,-0.790668195012,-3.12560000462,3.77293486426,-1.20710739016,Rest
-4.44734029162,3.93817610467,-0.885512653953,-4.72646206725,3.92027946451,-0.829432122532,-2.76584304937,3.83726720778,-1.38737706344,Rest
-4.54376417775,3.88696502088,-0.855450430266,-4.81442771775,3.81661635079,-0.792745591904,-2.9299328205,3.80668567697,-1.29923991784,Rest
-4.60071629762,3.71346231136,-0.807148728836,-4.894499015,3.72990524035,-0.762060678512,-2.93613552662,3.6338249365,-1.23762166411,Rest
-4.69883183087,3.67770426652,-0.782684803136,-4.99317843062,3.64895142709,-0.730787308683,-3.09345870925,3.5783268214,-1.15673980412,Rest
-4.74619795037,3.58766016701,-0.755901924976,-5.08058019875,3.54609392017,-0.697970267459,-3.12108894562,3.49580400756,-1.12005907825,Rest
-4.682479242,3.63561271101,-0.776429007607,-4.99656172487,3.59574128709,-0.719643123628,-3.03650658938,3.57326592805,-1.17676870538,Rest
-4.77326430438,3.59255895563,-0.752641950359,-5.06648313937,3.55897142859,-0.702454016066,-3.13856929925,3.5429822278,-1.12885263634,Rest
-4.77382818675,3.59941292257,-0.753988786727,-5.0546416095,3.56300420143,-0.704897493569,-3.16112459425,3.52811085895,-1.11609357802,Rest
-4.72871759675,3.71756338662,-0.786167350991,-5.02024478462,3.65439594733,-0.727931824862,-3.10191694487,3.60881896172,-1.16341572835,Rest
-4.74845347987,3.6374600101,-0.766030461394,-5.02813913787,3.6142894513,-0.718812537241,-3.08894765025,3.5666581433,-1.15465153416,Rest
-4.97851748887,3.46344243527,-0.695677466839,-5.18489843812,3.41594036759,-0.658824933285,-3.3178838945,3.41838053086,-1.03028937707,Rest
-4.813299953,3.63034392299,-0.754231807374,-5.08283572825,3.56609681821,-0.701595921819,-3.14928306437,3.52168154124,-1.11824865192,Rest
-5.02362807887,3.42087686053,-0.680957428938,-5.3027498545,3.35708422101,-0.633083647753,-3.41205225112,3.33584725491,-0.97766593516,Rest
-5.0275752555,3.46340869656,-0.688882517029,-5.30331373687,3.38545581345,-0.638366120019,-3.41092448637,3.39050984184,-0.994014923341,Rest
-4.74394242087,3.6521278032,-0.769850786369,-4.97964525362,3.64898907063,-0.732780928115,-3.058498002,3.60237719365,-1.17782558344,Rest
-5.05407772712,3.47863561695,-0.688282967688,-5.29993044262,3.46369764538,-0.653536434652,-3.4802820185,3.47694536358,-0.999041268809,Rest
-5.05351384475,3.48682884643,-0.689981061406,-5.3298162085,3.43744545803,-0.644946340278,-3.47182378288,3.43973568616,-0.990757567571,Rest
-4.867432661,3.50999526383,-0.721118402306,-5.06535537462,3.50276864299,-0.691514885715,-3.10022529775,3.44737577771,-1.11197588776,Rest
-4.76480606875,3.60075257729,-0.755697613992,-5.06422760987,3.51375369397,-0.69383802717,-3.1554857705,3.45389549756,-1.09456855418,Rest
-5.04392784438,3.32428125152,-0.659065980737,-5.29316385412,3.30607996939,-0.62459429946,-3.33705589525,3.28549422795,-0.984548755276,Rest
-4.57703323787,3.93172625763,-0.859011952348,-5.27850291237,3.34676607096,-0.634036984826,-3.16168847663,3.64372356825,-1.15246128617,Rest
-4.6396241815,3.81983826513,-0.823307689525,-4.95596219387,3.81465318092,-0.769709903283,-3.031431648,3.75941288626,-1.24014436834,Rest
-4.429859938,3.74392011866,-0.845155415986,-4.60466347425,3.79262624103,-0.823648951164,-2.72129634175,3.65875999123,-1.3444915701,Rest
-4.574213826,3.59317317961,-0.785528030891,-4.930587487,3.57238349869,-0.724535059586,-2.900610937,3.51522951963,-1.21189280327,Rest
-4.82570536525,3.73531944136,-0.774046312121,-5.10933819987,3.63927775798,-0.712279676077,-3.25416518613,3.6414089595,-1.11899942112,Rest
-4.14961039762,3.9655373907,-0.955640894135,-4.35486358213,4.06826307445,-0.934188407451,-2.36886985737,3.91502517762,-1.65269745209,Rest
-4.90408501537,3.68497157948,-0.751408584462,-5.14993773087,3.63064375753,-0.704987894468,-3.31844777687,3.61890619094,-1.09054185398,Rest
-4.77890312813,3.87772422304,-0.811425575926,-5.03546960875,3.77984871259,-0.75064472756,-3.19946859575,3.76875137709,-1.17793041697,Rest
-4.77439206912,3.61477855338,-0.757118079338,-5.06704702175,3.57801402721,-0.706133969519,-3.16619953562,3.54865004323,-1.1207916631,Rest
-4.844877366,3.68514177569,-0.760626430207,-5.15219326038,3.58465268072,-0.695752759954,-3.2051074195,3.53469179887,-1.10283099324,Rest
-4.72871759675,3.4063034214,-0.720344015413,-5.002764431,3.40697413663,-0.681018301704,-3.01451517675,3.37450336862,-1.11941827152,Rest
-4.78679748138,3.46887123464,-0.724674743007,-5.147118319,3.44666827461,-0.669630667298,-3.20003247813,3.38186615143,-1.05682244619,Rest
-4.64808241712,3.8529580113,-0.828934959738,-4.93622631075,3.89086536894,-0.788226698696,-3.1058641215,3.71376271275,-1.19572607412,Rest
-4.39941028975,4.19994477072,-0.95466085091,-4.85897442538,4.02375617242,-0.828108119156,-2.95587140975,3.97910804704,-1.34617089022,Rest
-4.46989558663,4.05348801419,-0.906841767471,-4.7704448925,3.98129389463,-0.834574968237,-2.85268093512,3.966392035,-1.39040857537,Rest
-4.8245776005,3.49383194084,-0.724173643818,-5.14204337762,3.4823267705,-0.677226253215,-3.23837647962,3.39751138378,-1.04914033472,Rest
-4.35260805262,3.75391701309,-0.862452342987,-4.7704448925,3.68454396188,-0.772369044169,-2.73934057775,3.61534344551,-1.31978603715,Rest
-4.8200665415,3.62433553107,-0.751926451609,-5.13245737725,3.60734537447,-0.70284955321,-3.234429303,3.5190590261,-1.08799998282,Rest
-4.73153700862,3.81526161035,-0.806347198255,-5.02137254938,3.72427020447,-0.741683706565,-3.17634941837,3.72270988714,-1.17200893126,Rest
-4.53868923638,3.91963229639,-0.863604466457,-4.82119430625,3.90747864831,-0.810479395788,-2.93726329137,3.85473055937,-1.31235445276,Rest
-4.71743994925,3.74679552299,-0.794243395421,-5.00389219575,3.73012534168,-0.74544478493,-3.11883341612,3.71100064747,-1.18986818221,Rest
-4.54658358962,3.88321973104,-0.854096192117,-4.85108007212,3.84561954851,-0.792734708834,-2.96940458675,3.82368318336,-1.28769356672,Rest
-4.50993123525,3.83843128263,-0.851106387749,-4.8561550135,3.82748203796,-0.788171305759,-2.88594999525,3.793700547,-1.31454133067,Rest
-4.61424947462,3.71548729228,-0.805220288308,-4.930587487,3.73356156867,-0.75722448461,-3.00549305875,3.6485577587,-1.2139631293,Rest
-4.06051698237,4.03874739256,-0.994638714747,-4.32441393387,4.01222811941,-0.927808526371,-2.21323832187,3.95401522606,-1.78652935248,Rest
-4.67232935925,3.625424449,-0.775935121488,-4.94299289925,3.63010831194,-0.734394806129,-3.02071788287,3.5358559402,-1.17053497787,Rest
-4.42422111425,3.77774780433,-0.853878616546,-4.86912430812,3.76612369466,-0.773470434587,-2.9479770565,3.79266530898,-1.28653148796,Rest
-4.11070251375,3.99016093965,-0.970676162118,-4.46200123338,3.97825113918,-0.891584500116,-2.44555786037,3.95792694309,-1.61841476222,Rest
-4.27366452013,3.8515634254,-0.901232047406,-4.538125354,3.87554908274,-0.85399780315,-2.5735591595,3.76307163837,-1.46220522053,Rest
-4.19641263475,3.82102924385,-0.910546596922,-4.49808970537,3.84984558152,-0.855884571826,-2.49179621512,3.73872635888,-1.50041417359,Rest
-4.14509933862,3.90509446454,-0.942099126105,-4.42365723187,3.959331928,-0.895035876531,-2.39706397612,3.84849448291,-1.60550344974,Rest
-4.15524922137,3.97273758078,-0.956076848614,-4.4636928805,3.9343598755,-0.881413659235,-2.472060332,3.87975267734,-1.5694409344,Rest
-4.49245088162,3.56156924183,-0.792789801308,-4.87250760238,3.56327793533,-0.731302693832,-2.83463669912,3.50198970809,-1.2354280565,Rest
-4.63116594587,3.61795434758,-0.781218896033,-4.93453466362,3.58747794539,-0.727014438026,-3.00323752925,3.5328301389,-1.1763405673,Rest
-4.6892458305,3.7485882438,-0.79940109333,-4.97231478275,3.74052196944,-0.752269744147,-3.044964825,3.6569117573,-1.20097011541,Rest
-4.777211481,3.7256308922,-0.779875646497,-5.0050199605,3.68045399818,-0.735352511524,-3.081053297,3.66626173324,-1.1899377842,Rest
-4.67627653587,3.80093994559,-0.812813339081,-4.96723984137,3.75995985419,-0.756951541351,-3.03086776562,3.71448349992,-1.225551158,Rest
-4.86799654337,3.83084235035,-0.786944344807,-5.0907300815,3.76433683313,-0.739449307439,-3.2682622455,3.7657610201,-1.15222119195,Rest
-4.56011676662,4.10184919264,-0.899505298343,-4.90746830963,3.94551971165,-0.803982718322,-3.01395129437,4.00838970167,-1.32994508211,Rest
-4.78736136375,3.87419201092,-0.809254141594,-5.04280007962,3.7912991587,-0.751824204576,-3.126163887,3.78870817952,-1.21193523963,Rest
-4.53248653025,3.89784261719,-0.859978863958,-4.83416360087,3.93453310302,-0.81390152007,-2.93500776187,3.8812026329,-1.32238240843,Rest
-4.61086618037,3.93892528881,-0.854270138131,-4.91367101575,3.90894243748,-0.795523840516,-3.04158153075,3.89134585562,-1.27938239244,Rest
-4.71518441975,3.94728923876,-0.837144189361,-4.9689314885,3.86698084078,-0.778231869312,-3.07992553225,3.9547317017,-1.28403484444,Rest
-4.63172982825,3.89750847501,-0.841480099127,-4.90464889775,3.85982967953,-0.786973697811,-3.03086776563,3.84055707301,-1.26714768508,Rest
-4.62947429875,3.87352881105,-0.836710296048,-4.92720419275,3.81680629347,-0.774639358175,-2.97109623387,3.79824064791,-1.27839704571,Rest
-4.57477770837,3.91877686634,-0.856604870476,-4.91367101575,3.85525534417,-0.784597774619,-3.0291761185,3.74679772942,-1.23690323139,Rest
-4.75860336263,3.77960555403,-0.794267827346,-5.06197208037,3.72400108956,-0.735681870707,-3.11657788663,3.74168784479,-1.20057575357,Rest
-4.44846805637,3.65263656095,-0.821099874082,-4.714056655,3.72950626292,-0.791145829562,-2.80023987425,3.61852436768,-1.29221942768,Rest
-4.69488465425,3.7549030237,-0.799786001196,-5.02362807887,3.67778242283,-0.73209687602,-3.044964825,3.67986026157,-1.20850665707,Rest
-4.7614227745,3.694058124,-0.775830733575,-5.03265019687,3.65341888581,-0.725943338578,-3.1825521245,3.62028926554,-1.13754280336,Rest
-4.63793253437,3.83421667653,-0.826708161042,-4.87701866137,3.7873976903,-0.776580520452,-2.91696352587,3.79354444114,-1.30051144194,Rest
-4.66612665312,3.87567702735,-0.83059833465,-4.96160101762,3.79958149862,-0.765797468422,-3.0923309445,3.74916838244,-1.21240851957,Rest
-4.71913159638,3.82495006755,-0.81051989957,-4.96611207662,3.78179018127,-0.761519297776,-3.06752012,3.7255312081,-1.21450913518,Rest
-4.66387112362,3.8149949135,-0.817988922159,-4.95934548812,3.77811016983,-0.76181628783,-3.00944023537,3.74779452127,-1.2453460538,Rest
-4.39546311312,3.77223464424,-0.858210965978,-4.66274335887,3.82545379463,-0.820429841447,-2.738212813,3.75071158918,-1.36976628382,Rest
-3.9990538035,3.89802941759,-0.974737927802,-4.3509164055,3.95241178167,-0.908409036927,-2.22677149887,3.94193383007,-1.77024622062,Rest
-4.36050240587,3.76955055591,-0.864476201373,-4.66105171175,3.7858931639,-0.812240111896,-2.66941916325,3.71556144473,-1.39189884297,Rest
-4.44226535025,3.76637954265,-0.847851095261,-4.72251489062,3.79225109272,-0.803015168942,-2.7675346965,3.71888937889,-1.34375528646,Rest
-4.51951723562,3.6786147191,-0.813939747836,-4.75183677412,3.74237950654,-0.787564826914,-2.71622140037,3.69777840308,-1.36136855507,Rest
-4.55447794287,3.68030743052,-0.808063509513,-4.840366307,3.6957344703,-0.76352371616,-2.87241681825,3.61019867872,-1.25685055727,Rest
-4.39038817175,3.83818806611,-0.874225220176,-4.668946065,3.82445961803,-0.819126964583,-2.71171034137,3.77375594857,-1.39165156801,Rest
-4.60128018,3.7303723648,-0.810724889351,-4.85784666062,3.72617872305,-0.767043297857,-2.89948317225,3.64760667929,-1.25801960646,Rest
-4.48230099887,3.66051656475,-0.816660140777,-4.80371395262,3.65663868505,-0.761210746749,-2.82730622825,3.59986164937,-1.27324787581,Rest
-4.60748288613,3.6648397876,-0.795410396126,-4.8561550135,3.65300811652,-0.752242897181,-2.9163996435,3.61919792403,-1.24098147251,Rest
-4.53023100075,3.67380874141,-0.810953953739,-4.83529136562,3.64049618937,-0.752901100284,-2.86170305312,3.6012415313,-1.25842600174,Rest
-4.50542017625,3.69864114566,-0.820931456107,-4.75803948025,3.6825308044,-0.773959699091,-2.80193152137,3.6287414224,-1.29508569168,Rest
-4.53643370688,3.65613326715,-0.805948792245,-4.83867465987,3.60894935818,-0.745854931746,-2.89722764275,3.56426101771,-1.23023160663,Rest
-4.47666217512,3.68287283908,-0.82268277011,-4.76424218637,3.6780850035,-0.772018898204,-2.819411875,3.59545127657,-1.27524868163,Rest
-4.48681205787,3.63450563056,-0.810041870192,-4.795255717,3.7074167963,-0.773142667482,-2.80644258037,3.6040859051,-1.28421865115,Rest
-4.3418942875,3.8252643229,-0.881012772216,-4.66387112362,3.84372765079,-0.824149627831,-2.64742775062,3.73983417268,-1.41262936139,Rest
-4.26351463737,3.80961031662,-0.893537524939,-4.54883911912,3.85672588693,-0.847848381956,-2.54310951125,3.81323512206,-1.49943803253,Rest
-4.21840404738,3.82441468091,-0.906602269,-4.50147299962,3.87785443273,-0.861463443867,-2.4698048025,3.79752068699,-1.53757927879,Rest
-4.262950755,3.81165132833,-0.894134496828,-4.506547941,3.86715844316,-0.858119894383,-2.51829868675,3.77089035143,-1.49739598852,Rest
-4.20712639987,3.83155310405,-0.910729257901,-4.474970528,3.8687354577,-0.864527583701,-2.49123233275,3.77873209839,-1.51681240192,Rest
-4.22178734163,3.78218028059,-0.895871813177,-4.50090911725,3.84082286413,-0.853343794347,-2.45796327262,3.77393793814,-1.53539232265,Rest
-4.29734757987,3.7262207063,-0.867097817209,-4.57477770837,3.77138051676,-0.824385523663,-2.57299527712,3.68816797121,-1.43341420173,Rest
-4.244906519,3.76570833208,-0.887112193219,-4.53981700112,3.79528274172,-0.835999059165,-2.50984045112,3.75596115673,-1.4964939923,Rest
-4.34076652275,3.78232172369,-0.871348805301,-4.58605535587,3.87243407767,-0.844393226242,-2.620925279,3.77527802954,-1.44043710814,Rest
-4.47609829275,3.59537327615,-0.803238231379,-4.80822501162,3.61251370068,-0.751319601714,-2.823922934,3.52340565294,-1.24769894055,Rest
-4.55335017812,3.50710971159,-0.770226223417,-4.867432661,3.57413612965,-0.734295958173,-2.8577558765,3.4888827484,-1.22084702094,Rest
-3.98157344987,4.04619922807,-1.01623121588,-4.27028122588,4.10000542232,-0.960125388811,-2.23579361687,3.99246621178,-1.78570427147,Rest
-4.08532780688,3.95233257989,-0.967445641263,-4.37290781812,3.99687906079,-0.914009447952,-2.3660504455,3.89201337213,-1.64494099419,Rest
-4.23250110675,3.88732035456,-0.918445206869,-4.51444229425,3.9223377522,-0.868842150711,-2.49517950938,3.81964010718,-1.53080774062,Rest
-4.13833275012,3.83059699185,-0.925637744268,-4.42365723187,3.89279884424,-0.879995587405,-2.43089691862,3.83572831905,-1.5779066112,Rest
-4.28437828525,3.78972234857,-0.884544290036,-4.56124453137,3.83649087877,-0.841106161351,-2.56340927675,3.74437105874,-1.4606996599,Rest
-4.45636240962,3.62394840131,-0.813207739452,-4.77157265725,3.64361557832,-0.763608948254,-2.77486516737,3.55657555908,-1.28171112633,Rest
-4.08532780688,3.99554553167,-0.978023238416,-4.36952452387,4.01062063643,-0.917862026983,-2.39255291712,3.92015435448,-1.63848177669,Rest
-4.18344334012,3.88912412908,-0.929646660153,-4.47215111612,3.92828157738,-0.878387486331,-2.46924092012,3.80915123982,-1.54264057783,Rest
-4.109574749,3.88718506329,-0.94588498828,-4.407304643,3.96382213469,-0.899375572094,-2.40495832937,3.85842814167,-1.60436382391,Rest
-4.03570615787,3.88527440972,-0.962724801492,-4.25449251937,3.97877477597,-0.935193741168,-2.1991412625,3.8845692699,-1.76640279374,Rest
-4.22178734162,3.7918325127,-0.898158103634,-4.551658531,3.84606869198,-0.844981816142,-2.54705668788,3.78173468973,-1.48474696607,Rest
-4.2877615795,3.78916134172,-0.883715493845,-4.61537723937,3.76666230178,-0.816111469642,-2.60344492537,3.71821109193,-1.42818887993,Rest
-4.63003818112,3.49908887591,-0.755736505625,-4.82796089475,3.56905365888,-0.739246596375,-2.78614281487,3.54065326443,-1.27080824627,Rest
-4.27366452013,3.8015977427,-0.88954051606,-4.58154429688,3.88642259177,-0.848277860026,-2.56397315912,3.81255677343,-1.48697218606,Rest
-4.26464240213,3.78785403123,-0.888199683363,-4.54658358962,3.85982288337,-0.848950163851,-2.566792571,3.77222119989,-1.46962448096,Rest
-4.27028122588,3.79455681483,-0.888596468036,-4.61199394512,3.8312576643,-0.830716108886,-2.56961198288,3.76473275273,-1.4650977571,Rest
-4.19584875237,3.851492428,-0.917929280892,-4.51049511763,3.88142971936,-0.860532961047,-2.47769915575,3.81309770252,-1.53896718803,Rest
-4.20374310562,3.88236741625,-0.923550112056,-4.49414252875,3.92516168008,-0.873395014726,-2.51209598062,3.83687607957,-1.5273604628,Rest
-4.21840404738,3.89878072978,-0.924231222518,-4.54658358962,3.92217347104,-0.862663886789,-2.4968711565,3.86874992275,-1.54943915015,Rest
-4.14679098575,3.95100771596,-0.952786800573,-4.40786852537,3.98324813419,-0.903667636923,-2.3886057405,3.91250118079,-1.63798533783,Rest
-4.14735486812,3.95500903431,-0.953622045876,-4.470459469,3.97473386558,-0.889110815821,-2.47544362625,3.90125027595,-1.57598025444,Rest
-4.13776886775,3.93453168878,-0.950882423484,-4.47327888088,3.94457993836,-0.881809527956,-2.449505037,3.87895271859,-1.58356592862,Rest
-4.18908216387,3.96854306352,-0.947353837492,-4.46651229237,3.99107480326,-0.893555092208,-2.50025445075,3.90820052305,-1.56312111428,Rest
-4.12367180837,3.98457301115,-0.966268218305,-4.44677640925,3.99243232447,-0.897826190712,-2.45683550787,3.91463824468,-1.59336603209,Rest
-4.114085808,4.0024204148,-0.972857787026,-4.43098770275,4.02823913422,-0.909106367351,-2.45965491975,3.95149827034,-1.6065254677,Rest
-4.1524298095,3.95575056936,-0.952635143962,-4.50260076437,4.09060559007,-0.908498399955,-2.50645715687,3.94436648352,-1.57368198882,Rest
-4.0261201575,4.00295487002,-0.994246250343,-4.3418942875,4.06665463666,-0.936608394259,-2.33334526775,3.96861985868,-1.70082838298,Rest
-3.97367909662,3.99269780061,-1.00478617008,-4.24547040137,4.04697712709,-0.953245870182,-2.26285997087,3.97144046034,-1.7550535656,Rest
-3.97085968475,4.03336340028,-1.0157406004,-4.24547040137,4.09415724823,-0.96435891931,-2.223952087,3.99500630469,-1.79635448445,Rest
-3.89473556412,4.04034337031,-1.03738580034,-4.23983157762,4.07016684673,-0.95998314372,-2.20703561575,4.00108158034,-1.81287585564,Rest
-3.92067415337,4.08525799227,-1.04197845382,-4.249417578,4.14038919203,-0.974342746043,-2.1675638495,4.0481124734,-1.8675862648,Rest
-3.90544932925,4.11471749943,-1.0535836347,-4.24377875425,4.17080446321,-0.982804407284,-2.21436608662,4.05587508299,-1.83161903874,Rest
-3.8998105055,4.12626852771,-1.05806898101,-4.09547768962,4.21254143087,-1.02858365986,-2.0141878435,4.13570324246,-2.05328577263,Rest
-3.81071709025,4.18432015792,-1.09804009556,-4.172729575,4.22602811214,-1.01277306285,-2.138241966,4.13349150946,-1.93312617337,Rest
-3.694557321,4.22398773209,-1.14330009392,-3.97255133187,4.2576045052,-1.07175569288,-1.9645661945,4.13253939248,-2.10353787215,Rest
-3.72895414587,4.23851559786,-1.13664996459,-4.06615580612,4.28617965101,-1.05411102166,-2.0096767845,4.19321011869,-2.08650970695,Rest
-3.72444308688,4.22766857444,-1.13511429114,-4.06841133563,4.26563413228,-1.04847661172,-2.038998668,4.15244696178,-2.03651283689,Rest
-3.70696273325,4.22877661231,-1.1407658821,-4.06841133563,4.29021836908,-1.05451932343,-2.0412541975,4.19010365393,-2.05271036751,Rest
-3.66185214325,4.30224308023,-1.17488170246,-3.98213733225,4.32254721928,-1.08548421579,-1.90535854512,4.2327671508,-2.22150689781,Rest
-3.78816179525,4.21641348223,-1.11304999895,-4.1028081605,4.27810924607,-1.04272709781,-2.102153494,4.150839853,-1.97456554188,Rest
-3.68271579112,4.26307005622,-1.157588665,-4.01145921575,4.29899292686,-1.07167808412,-2.020954432,4.20341629831,-2.07991641561,Rest
-3.82594191437,4.1306674076,-1.07964718233,-4.16709075125,4.13614775337,-0.992574436284,-2.13880584838,4.07410346445,-1.90484959986,Rest
-4.096041572,3.96064108225,-0.966943575311,-4.39433534837,4.00088238547,-0.910463601042,-2.34518679762,3.96628461328,-1.69124464512,Rest
-3.80000332513,4.14416638456,-1.09056914692,-4.08532780688,4.16221038715,-1.01881919491,-2.02602937338,4.07395049341,-2.01080524643,Rest
-3.76335097075,4.14928407781,-1.10255038928,-4.05600592337,4.22541979636,-1.04176864536,-2.00911290212,4.14046164797,-2.06084070417,Rest
-3.865977563,4.10562071842,-1.06198772536,-4.1885182815,4.13220822346,-0.986556091138,-2.1765859675,4.06283414324,-1.86660862649,Rest
-3.85526379787,4.10940944179,-1.06592172605,-4.222351224,4.16166952845,-0.98562845857,-2.13485867175,4.09387163367,-1.91763121739,Rest
-3.84680556225,4.1179043081,-1.07047373242,-4.12423569075,4.18195348746,-1.0139947862,-2.12414490662,4.1018212864,-1.93104588751,Rest
-3.86090262163,4.12370349917,-1.06806721207,-4.1704740455,4.18126990166,-1.00258864006,-2.12865596562,4.07806559857,-1.91579365779,Rest
-3.902066035,4.09738212581,-1.05005453241,-4.20092369375,4.11886721904,-0.980467039943,-2.16418055525,4.02645168142,-1.86049711594,Rest
-3.93702674225,4.08720040894,-1.03814392853,-4.26013134313,4.13929052478,-0.971634485274,-2.2126744395,4.07807530572,-1.84305256703,Rest
-3.85751932738,4.13533507407,-1.07201927537,-4.199795929,4.16374411225,-0.991415817015,-2.14557243687,4.1254744038,-1.92278495608,Rest
-3.915599212,4.08577449093,-1.04346085228,-4.24603428375,4.1189444151,-0.970068572189,-2.25665726475,4.05979317354,-1.79902958104,Rest
-4.425348879,3.77522412676,-0.85309073476,-4.69262912475,3.76403527282,-0.802116505003,-2.73482951875,3.69268050676,-1.35024157135,Rest
-4.42704052612,3.78257740072,-0.854425745235,-4.72702594963,3.7608744047,-0.795611118868,-2.747234931,3.73981551059,-1.36130167405,Rest
-4.159196398,3.84410257291,-0.924241657537,-4.47553441037,3.92264363811,-0.876463742299,-2.422438683,3.89400625314,-1.60747360933,Rest
-4.15863251562,3.93468276675,-0.946148223476,-4.49696194062,3.99150881418,-0.887601199851,-2.46416597875,3.89855648908,-1.5820997947,Rest
-4.2291178125,3.88183114328,-0.917882006457,-4.54150864825,3.88336273421,-0.855082096058,-2.53859845225,3.79920142973,-1.49657438984,Rest
-4.37008840625,3.75128444904,-0.8584001284,-4.71743994925,3.80374018938,-0.806314490549,-2.63389457363,3.83275952323,-1.4551681611,Rest
-4.40335746637,3.7906268245,-0.860849216409,-4.6847347715,3.79508908264,-0.810096892939,-2.71001869425,3.72482975949,-1.3744664446,Rest
-4.56688335512,3.6014703787,-0.788605729257,-4.8426218365,3.62050145215,-0.747632496278,-2.84704211137,3.59204841624,-1.26167730428,Rest
-4.58210817925,3.59904188572,-0.785455459568,-4.87081595525,3.59391908096,-0.73784743952,-2.855500347,3.52927235103,-1.23595584737,Rest
-4.43042382037,3.71509018994,-0.838540586762,-4.73266477337,3.71380616341,-0.784717773443,-2.74892657812,3.64953172186,-1.32762066143,Rest
-4.3509164055,3.7956942816,-0.872389613554,-4.67289324162,3.80041623629,-0.813289762847,-2.66772751612,3.72000681825,-1.39444781964,Rest
-4.63906029912,3.66469888584,-0.789965779606,-4.97062313562,3.67206051794,-0.738752550283,-3.02861223612,3.57718370146,-1.18112964704,Rest
-4.43775429125,3.77386805013,-0.850400405802,-4.696012419,3.77626835618,-0.804143605094,-2.74328775437,3.71504157622,-1.3542296357,Rest
-4.91367101575,3.63063031433,-0.738883474839,-4.86630489625,3.90385098265,-0.802220795014,-3.07541447325,3.69573705135,-1.20170373246,Rest
-5.160651496,3.81413039586,-0.739079241995,-5.58299939487,3.45683347251,-0.619171385847,-3.75376497038,3.50206415924,-0.932947104274,Fly
-4.80935277637,3.664803348,-0.762015913245,-5.04054455012,3.62305369917,-0.71878219965,-3.18424377162,3.62961895412,-1.1398684317,Rest
-4.71574830213,3.66440387692,-0.77705671341,-5.01742537275,3.64030844579,-0.725533152034,-3.11206682763,3.5865347829,-1.15246072194,Rest
-5.91287058425,5.94438915892,-1.00533050305,-5.823777169,5.26319532363,-0.903742566191,-3.78421461862,5.10374417003,-1.3486931066,Fly
-5.10821043512,4.9616470944,-0.971308280544,-5.40255703487,5.02394827082,-0.929920450333,-3.77913967725,5.28633504272,-1.39881970347,Fly
-5.0275752555,4.76356349702,-0.947487258755,-4.95032337013,4.58359997639,-0.925919305403,-2.92147458487,4.30212907809,-1.47258822663,Fly
-5.03039466738,4.83337786398,-0.960834722438,-5.77302775525,5.25582405303,-0.910410321213,-3.62576367125,5.04098669803,-1.39032412344,Fly
-4.85446336637,4.91278580116,-1.01201418785,-5.03772513825,4.7295650254,-0.938829510465,-3.17634941837,4.76790311208,-1.50106379497,Fly
-4.30636969788,4.33372095536,-1.00635134914,-5.03828902062,4.72944438165,-0.938700491831,-3.30773401175,4.64896188234,-1.40548238336,Fly
-5.4110152705,5.20782859303,-0.962449435585,-5.11610478837,4.76085294808,-0.930562047693,-3.42332989862,4.84842182772,-1.41628822559,Fly
-5.16008761362,4.64835159253,-0.900828036381,-5.12851020062,4.53944206795,-0.885138547135,-3.82932520862,4.918832255,-1.28451671953,Fly
-4.93904572262,4.7645264216,-0.964665380556,-4.5629361785,4.3131250441,-0.945252108592,-2.959254704,4.43978566576,-1.50030535045,Fly
-4.54150864825,4.33146986857,-0.953751320113,-4.86404936675,4.41350284642,-0.907372132485,-3.4577267235,4.56713590813,-1.32084929589,Fly
-4.99430619538,3.60032211035,-0.720885338125,-5.25707538212,3.50772688758,-0.667239221927,-3.446449076,3.51190071744,-1.01899103686,Rest
-5.092985611,3.43947985364,-0.675336652475,-5.33319950275,3.34058672468,-0.62637572867,-3.47915425375,3.36010216172,-0.965781312541,Rest
-4.79863901125,3.2982665412,-0.687333748895,-5.01235043138,3.40733730004,-0.679788324199,-3.07767000275,3.34052200037,-1.0854061668,Rest
-4.912543251,3.52025656353,-0.716585357862,-5.201251027,3.46260437847,-0.665725295799,-3.28010377538,3.43169339589,-1.04621488553,Rest
-4.57083053175,3.99045353902,-0.873025921941,-4.9057766625,3.90563999923,-0.796130820444,-3.04891200162,3.89461073569,-1.27737721968,Rest
-5.10821043512,3.32756726612,-0.651415463083,-5.36308526862,3.29365037122,-0.61413350828,-3.51073166675,3.24265824188,-0.923641721922,Rest
-4.78341418712,3.53873597775,-0.739792925996,-5.13076573012,3.48756207236,-0.679735200516,-3.20567130188,3.38490351651,-1.05591097706,Rest
-4.8155554825,3.79366048393,-0.787792913552,-4.83303583612,3.95222252339,-0.817751545281,-2.89948317225,3.91883873389,-1.3515645724,Rest
-4.26238687262,4.4005013124,-1.03240307459,-4.56462782563,4.3471774705,-0.952361865319,-2.67223857513,4.28618261835,-1.60396704779,Rest
-4.72420653775,3.83216702306,-0.811176859529,-5.03941678537,3.75521916133,-0.745169395836,-3.1284194165,3.73545648762,-1.19403954211,Rest
-4.81442771775,3.82337516003,-0.79414945746,-5.08565514012,3.73986239945,-0.735374754364,-3.24739859762,3.75704290016,-1.15693925067,Rest
-4.6080467685,3.7781438755,-0.819901373686,-4.808788894,3.89922016174,-0.810852846256,-2.66885528087,3.83989038249,-1.43877804466,Rest
-4.76649771587,3.70264382382,-0.77680595786,-5.092985611,3.66156298365,-0.718942338211,-3.18142435975,3.65117194965,-1.14765323226,Rest
-4.76762548063,3.65796781285,-0.767251502391,-5.10087996425,3.59573620249,-0.704924685091,-3.20792683137,3.53540304677,-1.10208344286,Rest
-4.99092290112,3.42907248406,-0.687061802396,-5.2170397335,3.38963086499,-0.649723030328,-3.33310871863,3.36260601291,-1.00884978462,Rest
-5.00220054862,3.39337830835,-0.678377101311,-5.26496973537,3.36547332026,-0.639219879585,-3.36017507263,3.36068403279,-1.00015146835,Rest
-5.06028043325,3.48646625681,-0.688986767197,-5.345604915,3.4095855506,-0.63782969464,-3.44757684075,3.41143356454,-0.989516324687,Rest
-4.96780372375,3.51550792318,-0.707658377558,-5.20294267412,3.50339856388,-0.673349445363,-3.32408660063,3.422388603,-1.02957263579,Rest
-4.619324416,3.7976921605,-0.822131510691,-4.92889583987,3.75429476388,-0.761690830127,-3.00154588212,3.74429238167,-1.24745465461,Rest
-4.67007382975,3.76287611026,-0.805742317454,-4.99261454825,3.74264173527,-0.749635626604,-3.05962576675,3.70424130634,-1.21068443945,Rest
-4.76875324537,3.66755577302,-0.769080634771,-5.04674725625,3.66936506761,-0.727075258834,-3.1193972985,3.6216394595,-1.16100615373,Rest
-4.73379253812,3.78961575024,-0.800545380837,-4.99712560725,3.71691809202,-0.743811219519,-3.126163887,3.69675298697,-1.18252053334,Rest
-4.64751853475,3.7627713287,-0.809630193095,-4.92776807512,3.72529901405,-0.755980995301,-3.017898471,3.67374521412,-1.21731902164,Rest
-4.718567714,3.62851258619,-0.768986015698,-5.02701137312,3.65632458978,-0.727335651025,-3.1148862395,3.60868085087,-1.15852733403,Rest
-4.786233599,3.67907284256,-0.768678077755,-5.02644749075,3.60253871473,-0.716716671439,-3.13349435787,3.57420796598,-1.14064605127,Rest
-4.78679748137,3.57100430801,-0.746011152948,-5.07776078687,3.57210004804,-0.703479387464,-3.17973271262,3.51454811577,-1.10529671309,Rest
-4.73322865575,3.72152302918,-0.786254647693,-5.00727549,3.68441278883,-0.735811879372,-3.09627812113,3.61190492245,-1.16653116456,Rest
-4.9621649,3.38933367865,-0.683035277334,-5.24523385225,3.39793086219,-0.647813035205,-3.33649201287,3.35470259432,-1.00545800241,Rest
-4.97738972412,3.43022728161,-0.689161884388,-5.20970926262,3.4020701363,-0.653024951068,-3.35679177837,3.38059739449,-1.00709177622,Rest
-4.94694007588,3.47057902545,-0.701560757199,-5.25030879362,3.4014457547,-0.647856323962,-3.33874754237,3.37938800235,-1.01217236687,Rest
-4.92720419275,3.46574768649,-0.703390310389,-5.22493408675,3.45220763748,-0.660717930631,-3.29250918762,3.40308311056,-1.03358348197,Rest
-5.03039466737,3.12310411089,-0.62084673617,-5.25200044075,3.1782225512,-0.605145141753,-3.34100307187,3.0961823079,-0.926722376872,Rest
-4.98415631262,3.52683786964,-0.70760980363,-5.21760361587,3.47169290694,-0.665380730798,-3.3359281305,3.46249418336,-1.03794028166,Rest
-4.759167245,3.62166333977,-0.760986776327,-5.05182219762,3.55278649146,-0.703268316357,-3.11601400425,3.5180640808,-1.12902704417,Rest
-4.87363536712,3.60484277911,-0.739661978701,-5.138096201,3.57502564186,-0.695787992674,-3.23499318537,3.54529091688,-1.09591912988,Rest
-4.831344189,3.69569110829,-0.764940555613,-5.1087743175,3.65217172596,-0.714882180928,-3.21243789037,3.59335613001,-1.11857606361,Rest
-4.91085160387,3.33396325672,-0.678897170114,-5.129074083,3.3423104046,-0.651640110966,-3.17916883025,3.34629656517,-1.05256963183,Rest
-4.67684041825,3.79670189469,-0.811809160705,-4.98753960687,3.75620224829,-0.753117277126,-3.08894765025,3.72485502691,-1.20586537833,Rest
-4.84205795412,3.67330962449,-0.758625704047,-5.11215761175,3.64445183858,-0.712898958789,-3.24401530337,3.58927281482,-1.10642906373,Rest
-4.75127289175,3.74428953687,-0.788060299245,-5.025319726,3.66347292468,-0.729002953927,-3.15943294713,3.64567250909,-1.15390089617,Rest
-4.93622631075,3.56756235422,-0.722730711607,-5.22662573387,3.53441540122,-0.676232732393,-3.34438636612,3.50262013217,-1.04731324337,Rest
-4.72928147912,3.82605684991,-0.809014406691,-4.93904572262,3.79186135864,-0.767731576419,-3.13349435787,3.62612894866,-1.15721572612,Rest
-4.61876053363,3.80677150061,-0.824197633305,-4.92438478087,3.76334737995,-0.764226913088,-3.01395129437,3.68909652705,-1.22400668316,Rest
-4.57308606125,3.89732311816,-0.852230433883,-4.87025207287,3.84782487066,-0.790066882183,-2.959254704,3.84661429044,-1.29985914536,Rest
-4.60748288613,3.83589244796,-0.832535365354,-4.862921602,3.79740279446,-0.780889166071,-2.96094635113,3.77977211997,-1.27654191321,Rest
-4.55053076625,3.81216765565,-0.837741321062,-4.84205795412,3.77576711999,-0.779785610946,-2.9299328205,3.78014833848,-1.29018259805,Rest
-4.20035981137,3.9615519636,-0.943145859283,-4.53756147162,3.94100094705,-0.868528387262,-2.57073974762,3.85507698721,-1.49959831242,Rest
-4.50767570575,3.83987435963,-0.851852398061,-4.82514148287,3.81995209414,-0.791676701646,-2.86283081787,3.75496005491,-1.31162485449,Rest
-4.54432806012,3.71427223076,-0.817342450108,-4.87363536712,3.69755998796,-0.75868621869,-2.89553599562,3.65939308044,-1.26380507304,Rest
-4.853899484,3.39319357158,-0.699065479778,-5.156140437,3.40071023011,-0.659545695401,-3.207362949,3.33992133705,-1.04132940056,Rest
-4.82401371813,3.47217938514,-0.71976979918,-5.11666867075,3.41745675934,-0.667906596899,-3.15886906475,3.38752054019,-1.07238396741,Rest
-4.81273607063,3.44080151955,-0.714936674078,-5.06648313938,3.41462020652,-0.673962611261,-3.162252359,3.3680735325,-1.06508689065,Rest
-4.85220783687,3.39842953662,-0.700388287326,-5.1177964355,3.42906807959,-0.670028228517,-3.16168847662,3.36046603809,-1.06287069803,Rest
-4.60297182712,3.87628801847,-0.842127252578,-4.90239336825,3.80991432022,-0.777153939725,-2.9840655285,3.74108041106,-1.2536857436,Rest
-4.51049511763,3.82291786095,-0.847560580658,-4.81668324725,3.80106563345,-0.789145857914,-2.8983554075,3.73017802086,-1.28699814081,Rest
-4.51387841187,3.7383834381,-0.828197637815,-4.78285030475,3.74757753639,-0.783544810647,-2.80531481562,3.70644543329,-1.32122263521,Rest
-4.24547040137,3.89266913444,-0.916899369543,-4.49188699925,3.91783120575,-0.872201639624,-2.5961144545,3.82005335123,-1.47145028395,Rest
-4.4050491135,3.87776690245,-0.880300492125,-4.74507018562,3.83984500491,-0.809228284239,-2.79178163862,3.79466775725,-1.35922799432,Rest
-4.199795929,3.96637668349,-0.944421288687,-4.48060935175,4.04547482246,-0.902884966055,-2.38014750488,3.97618565022,-1.67056270339,Rest
-4.1749851045,4.1277539448,-0.988687107016,-4.51613394137,4.10260134933,-0.908432168441,-2.5645370415,4.08378923514,-1.59240797425,Rest
-4.32497781625,4.00757118802,-0.926610807797,-4.63116594587,3.99595041142,-0.862838960668,-2.69592163487,3.92090892838,-1.45438534921,Rest
-4.44846805637,3.9027390097,-0.877322026423,-4.73717583237,3.89175091372,-0.821533979618,-2.81602858075,3.83621923425,-1.36227993582,Rest
-4.4230933495,3.89804768929,-0.881294465497,-4.70616230175,3.90610417903,-0.829997762206,-2.7449794015,3.85795843166,-1.40545988416,Rest
-4.45410688012,3.92347391279,-0.880866584117,-4.71518441975,3.87181841332,-0.821138277669,-2.78445116775,3.802142907,-1.36549096319,Rest
-4.61312170988,3.75941690371,-0.814939891064,-5.10933819988,3.53267330617,-0.691415045936,-3.12898329888,3.60952022777,-1.15357606066,Rest
-4.5494030015,3.82230470242,-0.840177205924,-4.804277835,3.77450579873,-0.785655186557,-2.90343034887,3.69839436741,-1.27380164943,Rest
-4.55335017812,3.81136498258,-0.837046313919,-4.82683313,3.76906335833,-0.780856362094,-2.8938443485,3.71835240301,-1.28491789993,Rest
-4.57252217887,3.82505813341,-0.836531346109,-4.85051618975,3.77889365431,-0.779070413639,-2.950232586,3.75303503723,-1.27211496986,Rest
-4.61312170988,3.78530668382,-0.820552095062,-4.93791795787,3.74576289817,-0.758571310849,-3.01000411775,3.70471303997,-1.23079999065,Rest
-4.35881075875,4.06609711846,-0.932845526797,-4.64695465237,4.00101780568,-0.860997815771,-2.77599293212,3.93906251615,-1.41897425983,Rest
-4.38192993612,3.94868750033,-0.901129766538,-4.6802237125,3.93205171021,-0.840141829057,-2.67393022225,3.85837626581,-1.44296071517,Rest
